time,seconds_elapsed,z,y,x
1742643386087304200,-0.03069580078125,-0.047929998487234116,0.01816999912261963,-0.00021699999342672527
1742643386373970400,0.255970458984375,-0.047929998487234116,0.01816999912261963,-0.00021699999342672527
1742643386397806600,0.279806640625,0.967136025428772,0.852886974811554,-0.9272909760475159
1742643386413698000,0.295697998046875,0.967136025428772,0.852886974811554,-0.9272909760475159
1742643386437535000,0.319534912109375,0.26851901412010193,0.7965289950370789,-0.3314779996871948
1742643386453425200,0.335425048828125,0.26851901412010193,0.7965289950370789,-0.3314779996871948
1742643386469315600,0.351315673828125,-0.3543210029602051,0.647392988204956,-0.15641500055789948
1742643386485204200,0.367204345703125,-0.991566002368927,0.38062700629234314,0.1905989944934845
1742643386501093600,0.38309375,-1.4800310134887695,-0.23163999617099762,0.6325439810752869
1742643386516983800,0.39898388671875,-1.2883349657058716,-0.43842899799346924,0.7350149750709534
1742643386532874800,0.414874755859375,-1.2883349657058716,-0.43842899799346924,0.7350149750709534
1742643386548765400,0.430765380859375,-0.21163499355316162,-0.42271700501441956,0.46577900648117065
1742643386564657700,0.44665771484375,0.4289900064468384,-0.2134380042552948,0.029975000768899918
1742643386580548000,0.462548095703125,0.8379110097885132,0.27189499139785767,-0.36633598804473877
1742643386596438800,0.478438720703125,0.8789880275726318,0.5020909905433655,-0.3267979919910431
1742643386612329700,0.494329833984375,0.8789880275726318,0.5020909905433655,-0.3267979919910431
1742643386628220700,0.510220703125,0.9881809949874878,0.7325109839439392,-0.285986989736557
1742643386644112600,0.526112548828125,0.5933899879455566,0.6634550094604492,-0.19091500341892242
1742643386660005400,0.54200537109375,-0.3326539993286133,0.5133489966392517,0.08023600280284882
1742643386675895600,0.5578955078125,-1.0408780574798584,0.1737930029630661,0.43098199367523193
1742643386691785000,0.573784912109375,-1.0408780574798584,0.1737930029630661,0.43098199367523193
1742643386707676000,0.589676025390625,-1.8037400245666504,-0.49056199193000793,0.968766987323761
1742643386723566800,0.60556689453125,-1.4635130167007446,-0.7302929759025574,0.8083119988441467
1742643386739457500,0.62145751953125,0.19781799614429474,-0.559095025062561,-0.07488500326871872
1742643386755349000,0.637348876953125,1.0011179447174072,-0.318136990070343,-0.4519360065460205
1742643386771244300,0.653244384765625,1.0011179447174072,-0.318136990070343,-0.4519360065460205
1742643386787134700,0.669134765625,1.3959410190582275,0.31843701004981995,-0.7841579914093018
1742643386803024600,0.685024658203125,1.2597030401229858,0.6547489762306213,-0.7995359897613525
1742643386818917000,0.700917236328125,0.8374999761581421,0.7991229891777039,-0.4728890061378479
1742643386834809000,0.71680908203125,0.31995901465415955,0.8201990127563477,-0.20063500106334686
1742643386850701600,0.73270166015625,0.31995901465415955,0.8201990127563477,-0.20063500106334686
1742643386866591700,0.748591796875,-0.8104659914970398,0.4875600039958954,0.14068900048732758
1742643386890426400,0.77242626953125,-1.0827970504760742,-0.022185999900102615,0.2373100072145462
1742643386906318600,0.788318603515625,-0.7967159748077393,-0.4628799855709076,0.3607900142669678
1742643386922211800,0.8042119140625,-0.4153040051460266,-0.5207020044326782,0.2798300087451935
1742643386938103800,0.820103759765625,-0.18366999924182892,-0.5095260143280029,0.1730549931526184
1742643386953996000,0.83599609375,-0.18366999924182892,-0.5095260143280029,0.1730549931526184
1742643386969890300,0.851890380859375,0.3340910077095032,-0.33451899886131287,-0.12160199880599976
1742643386985785300,0.867785400390625,0.6067649722099304,-0.14574900269508362,-0.3458549976348877
1742643387001679600,0.8836796875,0.3618910014629364,0.23377099633216858,-0.25590699911117554
1742643387017572400,0.899572265625,0.1714559942483902,0.3818419873714447,0.06451699882745743
1742643387033464000,0.915464111328125,0.1714559942483902,0.3818419873714447,0.06451699882745743
1742643387049355800,0.931355712890625,-0.14161700010299683,0.4072839915752411,0.17916299402713776
1742643387065248000,0.947248046875,-0.3185169994831085,0.35099199414253235,0.08864499628543854
1742643387081139700,0.9631396484375,-0.2502869963645935,0.07728900015354156,0.13340400159358978
1742643387097028900,0.97902880859375,-0.19576700031757355,-0.12730400264263153,0.14820300042629242
1742643387112919800,0.994919921875,-0.19576700031757355,-0.12730400264263153,0.14820300042629242
1742643387128811000,1.01081103515625,-0.11411000043153763,-0.33134400844573975,0.18706099689006805
1742643387144702500,1.026702392578125,-0.08698999881744385,-0.29017698764801025,0.1288830041885376
1742643387160596500,1.042596435546875,-0.08710899949073792,-0.05814800038933754,0.029923999682068825
1742643387176488200,1.05848828125,-0.05995599925518036,-0.0034280000254511833,-0.05438400059938431
1742643387192379100,1.074379150390625,-0.05995599925518036,-0.0034280000254511833,-0.05438400059938431
1742643387208270600,1.0902705078125,0.08980400115251541,0.037039998918771744,-0.15166300535202026
1742643387224161500,1.10616162109375,0.1714629977941513,0.07717499881982803,-0.15354299545288086
1742643387240052200,1.12205224609375,0.2258719950914383,0.04915599897503853,-0.033153001219034195
1742643387255944700,1.13794482421875,0.2666589915752411,0.07552099972963333,0.005468000192195177
1742643387271836700,1.153836669921875,0.2666589915752411,0.07552099972963333,0.005468000192195177
1742643387287730200,1.169730224609375,-0.019437000155448914,0.03412200137972832,0.07149799913167953
1742643387303623000,1.185622802734375,-0.11484699696302414,0.020476000383496284,0.15123000741004944
1742643387319513300,1.201513427734375,0.13025200366973877,-0.060986001044511795,0.05399399995803833
1742643387335405000,1.217405029296875,0.04847000166773796,-0.006180999800562859,-0.029409000650048256
1742643387351295200,1.233295166015625,0.04847000166773796,-0.006180999800562859,-0.029409000650048256
1742643387367184600,1.2491845703125,-0.31933099031448364,0.007809999864548445,-0.0036430000327527523
1742643387383075300,1.265075439453125,-0.33299100399017334,-0.0057310000993311405,-0.031971000134944916
1742643387398963700,1.280963623046875,-0.15592199563980103,0.007540000136941671,-0.2362069934606552
1742643387414854000,1.29685400390625,-0.15592199563980103,0.007540000136941671,-0.2362069934606552
1742643387430745300,1.312745361328125,-0.019641999155282974,0.0339989997446537,-0.30215299129486084
1742643387446637300,1.32863720703125,0.007734000217169523,0.01948400028049946,-0.2029629945755005
1742643387462529300,1.344529296875,-0.005721000023186207,0.005032999906688929,-0.157382994890213
1742643387478419700,1.360419677734375,0.07619699835777283,-0.03658699989318848,-0.20607200264930725
1742643387494311000,1.376310791015625,0.0764319971203804,-0.03720200061798096,-0.19902299344539642
1742643387510201900,1.392201904296875,0.0764319971203804,-0.03720200061798096,-0.19902299344539642
1742643387526092800,1.4080927734375,-0.005038999952375889,-0.037647001445293427,-0.04151900112628937
1742643387541984000,1.42398388671875,-0.05926400050520897,-0.0652960017323494,0.048298001289367676
1742643387557876000,1.4398759765625,-0.05901100113987923,-0.038284000009298325,0.002022000029683113
1742643387573768400,1.4557685546875,-0.05901100113987923,-0.038284000009298325,0.002022000029683113
1742643387589659400,1.471659423828125,-0.05876599997282028,-0.0381850004196167,-0.0715159997344017
1742643387605548500,1.487548583984375,-0.09939900040626526,0.0031820000149309635,0.01809299923479557
1742643387629385200,1.51138525390625,-0.003848999971523881,0.003969999961555004,0.03905799984931946
1742643387645277000,1.52727685546875,0.1325259953737259,0.03208800032734871,-0.009105999954044819
1742643387661169000,1.5431689453125,0.14628399908542633,0.03300099819898605,-0.04479299858212471
1742643387677061600,1.5590615234375,-0.09876900166273117,0.033872999250888824,0.0003459999861661345
1742643387692952000,1.5749521484375,-0.09876900166273117,0.033872999250888824,0.0003459999861661345
1742643387708843500,1.590843505859375,-0.13953199982643127,-0.006147000007331371,-0.03669700026512146
1742643387724735200,1.6067353515625,-0.1530809998512268,-0.005388000048696995,0.047835998237133026
1742643387740627500,1.62262744140625,-0.23477500677108765,-0.045538000762462616,0.04898099973797798
1742643387756520000,1.63852001953125,-0.15306100249290466,-0.08571399748325348,-0.019367000088095665
1742643387772411100,1.6544111328125,-0.15306100249290466,-0.08571399748325348,-0.019367000088095665
1742643387788302300,1.67030224609375,0.010366999544203281,-0.05782900005578995,-0.03352399915456772
1742643387804193000,1.686193115234375,0.0512159988284111,-0.057169001549482346,-0.02029399946331978
1742643387820084000,1.702083984375,-0.04413300007581711,-0.0020310000982135534,-0.04780299961566925
1742643387835975200,1.71797509765625,-0.044137999415397644,0.025832999497652054,-0.02065799944102764
1742643387851865600,1.733865478515625,-0.044137999415397644,0.025832999497652054,-0.02065799944102764
1742643387867757600,1.749757568359375,0.051201000809669495,-0.02797199971973896,0.02015800029039383
1742643387883648800,1.765648681640625,0.037578001618385315,0.027261000126600266,0.04741999879479408
1742643387899540000,1.7815400390625,-0.01690099947154522,0.09599900245666504,0.006616000086069107
1742643387915430000,1.797429931640625,-0.18035000562667847,0.0964059978723526,0.10186299681663513
1742643387931321000,1.813321044921875,-0.18035000562667847,0.0964059978723526,0.10186299681663513
1742643387947212300,1.82921240234375,0.010320999659597874,-0.039420999586582184,0.14226900041103363
1742643387963103000,1.84510302734375,-0.044172998517751694,0.0017689999658614397,0.019169000908732414
1742643387978993000,1.860992919921875,-0.18038900196552277,0.056522998958826065,-0.03578300029039383
1742643387994884400,1.87688427734375,-0.18038900196552277,0.056522998958826065,-0.03578300029039383
1742643388010774800,1.89277490234375,-0.05782200023531914,0.0022189998999238014,0.018139999359846115
1742643388026666200,1.908666259765625,0.037501998245716095,-0.03869500011205673,-0.037046000361442566
1742643388042558500,1.924558349609375,-0.003379999892786145,0.0016499999910593033,0.002891999902203679
1742643388058450000,1.940449951171875,-0.04427399858832359,-0.026378000155091286,0.015224999748170376
1742643388074340400,1.95634033203125,-0.0034519999753683805,-0.04076800122857094,0.000019999999494757503
1742643388090230500,1.97223046875,-0.0034519999753683805,-0.04076800122857094,0.000019999999494757503
1742643388106121200,1.988121337890625,0.010131999850273132,-0.0007210000185295939,-0.04227900132536888
1742643388122012200,2.00401220703125,0.10544700175523758,0.03927399963140488,-0.09788099676370621
1742643388137902300,2.01990234375,0.05094299837946892,0.052163999527692795,-0.09881400316953659
1742643388153793300,2.035793212890625,0.05094299837946892,0.052163999527692795,-0.09881400316953659
1742643388169684200,2.051684326171875,-0.017173999920487404,0.010850000195205212,-0.12668199837207794
1742643388185573600,2.06757373046875,0.03731900081038475,-0.0031369999051094055,-0.12621299922466278
1742643388201465300,2.08346533203125,-0.01710600033402443,-0.0034519999753683805,-0.056106001138687134
1742643388225301200,2.10730126953125,-0.13960500061511993,0.00991399958729744,0.0015660000499337912
1742643388241192200,2.123192138671875,-0.19397899508476257,0.11861199885606766,-0.03518800064921379
1742643388257085400,2.13908544921875,-0.0440480001270771,0.21348200738430023,-0.017433999106287956
1742643388272977000,2.154976806640625,-0.0440480001270771,0.21348200738430023,-0.017433999106287956
1742643388288867000,2.1708671875,0.010526999831199646,0.07636799663305283,0.027143999934196472
1742643388304758500,2.186758544921875,-0.043859999626874924,0.020258000120520592,-0.010146000422537327
1742643388320650200,2.202650146484375,-0.04377499967813492,-0.036573998630046844,0.033973999321460724
1742643388336540400,2.21854052734375,-0.01646300032734871,0.015014000236988068,0.06396900117397308
1742643388352430000,2.23443017578125,-0.01646300032734871,0.015014000236988068,0.06396900117397308
1742643388368322300,2.250322265625,-0.002785000018775463,0.06626799702644348,0.12066700309515
1742643388384214800,2.26621484375,0.07898300141096115,0.10356099903583527,0.13611899316310883
1742643388400105500,2.28210546875,-0.016342999413609505,0.1537570059299469,0.0685880035161972
1742643388415996200,2.29799609375,0.010873000137507915,0.16226500272750854,0.02669299952685833
1742643388431888600,2.313888671875,0.010873000137507915,0.16226500272750854,0.02669299952685833
1742643388447780400,2.3297802734375,-0.04367600008845329,0.061395999044179916,0.1328510046005249
1742643388463671800,2.345671875,-0.2072339951992035,0.04211699962615967,0.16923800110816956
1742643388479563800,2.361563720703125,-0.19376400113105774,-0.003957999870181084,0.09539099782705307
1742643388495456300,2.377456298828125,-0.044109001755714417,0.04597700014710426,0.06182900071144104
1742643388511348500,2.393348388671875,-0.044109001755714417,0.04597700014710426,0.06182900071144104
1742643388527239200,2.4092392578125,-0.0034129999112337828,-0.026128999888896942,0.001395000028423965
1742643388543131000,2.425130859375,0.05090399831533432,-0.05693000182509422,0.03646000102162361
1742643388559021000,2.44102099609375,0.09160900115966797,-0.03279300034046173,0.0038429999258369207
1742643388574910700,2.45691064453125,0.14594900608062744,-0.008252999745309353,-0.0009629999985918403
1742643388590801200,2.47280126953125,0.14594900608062744,-0.008252999745309353,-0.0009629999985918403
1742643388606690600,2.488690673828125,-0.058476999402046204,0.030247999355196953,-0.04583200067281723
1742643388622579500,2.504579345703125,-0.24926799535751343,0.05543600022792816,0.018844999372959137
1742643388638471000,2.520470947265625,-0.09953899681568146,0.06737100332975388,-0.011462000198662281
1742643388654361300,2.536361328125,-0.058758001774549484,0.0796860009431839,-0.02764900028705597
1742643388670252000,2.552251953125,-0.058758001774549484,0.0796860009431839,-0.02764900028705597
1742643388686142700,2.568142822265625,0.07738500088453293,0.024152999743819237,0.024938000366091728
1742643388702033700,2.58403369140625,0.14544999599456787,-0.017537999898195267,0.05110999941825867
1742643388717923300,2.59992333984375,0.14542999863624573,-0.05904199928045273,0.06414400041103363
1742643388733814300,2.615814208984375,0.03645100072026253,-0.1274159997701645,0.07726500183343887
1742643388749706000,2.6317060546875,0.03645100072026253,-0.1274159997701645,0.07726500183343887
1742643388765597700,2.64759765625,-0.1542470008134842,-0.032037001103162766,-0.018549999222159386
1742643388781489200,2.6634892578125,-0.14064200222492218,0.04974500089883804,0.06261400133371353
1742643388797382000,2.6793818359375,-0.18152199685573578,-0.031918998807668686,0.0619949996471405
1742643388813274000,2.695274169921875,-0.18152199685573578,-0.031918998807668686,0.0619949996471405
1742643388829166000,2.711166015625,-0.09981600195169449,-0.05905500054359436,-0.020299000665545464
1742643388845057300,2.727057373046875,-0.045354001224040985,-0.09959600120782852,0.06072999909520149
1742643388860947700,2.74294775390625,-0.05900200083851814,-0.09877099841833115,0.018849000334739685
1742643388876837600,2.758837646484375,0.009066999889910221,-0.04273499920964241,-0.023322999477386475
1742643388892728000,2.77472802734375,0.009066999889910221,-0.04273499920964241,-0.023322999477386475
1742643388908618200,2.7906181640625,0.04989200085401535,-0.04032599925994873,-0.024852000176906586
1742643388924508400,2.80650830078125,0.10433799773454666,-0.023641999810934067,0.0007929999846965075
1742643388940398800,2.82239892578125,0.008960999548435211,-0.020166000351309776,0.012910000048577785
1742643388956289000,2.8382890625,-0.00469100009649992,-0.030271999537944794,0.06596499681472778
1742643388972180000,2.854179931640625,-0.08644100278615952,-0.01372699998319149,-0.0033420000690966845
1742643388988070400,2.8700703125,-0.08644100278615952,-0.01372699998319149,-0.0033420000690966845
1742643389003961600,2.885961669921875,0.036114998161792755,0.002397000091150403,-0.004430999979376793
1742643389019853300,2.901853271484375,-0.08649300038814545,-0.04954100027680397,0.049059998244047165
1742643389035745300,2.917745361328125,-0.14099599421024323,-0.0741100013256073,0.007296999916434288
1742643389051637000,2.933636962890625,-0.14099599421024323,-0.0741100013256073,0.007296999916434288
1742643389067530200,2.9495302734375,-0.01843399927020073,-0.07136300206184387,0.03370799869298935
1742643389083422200,2.965422119140625,-0.0048329997807741165,-0.06868600100278854,0.005714999977499247
1742643389099315500,2.9813154296875,0.008767999708652496,-0.038979001343250275,0.005036000162363052
1742643389115208700,2.997208740234375,-0.004869000054895878,-0.036681998521089554,-0.009211000055074692
1742643389131100700,3.0131005859375,-0.004869000054895878,-0.036681998521089554,-0.009211000055074692
1742643389146994200,3.028994140625,-0.018505999818444252,-0.020871000364422798,0.031074000522494316
1742643389162887400,3.044887451171875,-0.01852400042116642,-0.03224800154566765,0.057684000581502914
1742643389178781400,3.060781494140625,-0.004927999805659056,-0.029961999505758286,0.02963699959218502
1742643389194673000,3.0766728515625,0.03590400144457817,-0.027653999626636505,0.001512999995611608
1742643389210564900,3.09256494140625,0.03590400144457817,-0.027653999626636505,0.001512999995611608
1742643389226457600,3.10845751953125,0.0767349973320961,-0.011739999987185001,0.0005549999768845737
1742643389242349600,3.124349609375,-0.05950799956917763,-0.022950999438762665,0.0538100004196167
1742643389258242000,3.140241943359375,-0.1412779986858368,0.020181000232696533,0.052372001111507416
1742643389274134800,3.156134765625,-0.14133599400520325,0.00850600004196167,0.050620000809431076
1742643389290027000,3.172027099609375,-0.14133599400520325,0.00850600004196167,0.050620000809431076
1742643389305918200,3.187918212890625,0.03566399961709976,-0.044270001351833344,0.04870900139212608
1742643389321811500,3.2038115234375,0.03559499979019165,-0.05637500062584877,0.03303699940443039
1742643389337704400,3.219704345703125,0.049139998853206635,-0.054965998977422714,0.04441700130701065
1742643389353597200,3.23559716796875,0.04905100166797638,-0.05362199991941452,0.06900899857282639
1742643389369489200,3.2514892578125,0.04905100166797638,-0.05362199991941452,0.06900899857282639
1742643389385383200,3.267383056640625,0.13067300617694855,0.0021250001154839993,0.06606999784708023
1742643389409222400,3.291222412109375,0.19867800176143646,0.11220700293779373,0.022413000464439392
1742643389425115000,3.307114990234375,0.307547003030777,0.12677699327468872,0.019680000841617584
1742643389441007600,3.323007568359375,-0.11480099707841873,0.11380700021982193,0.22059999406337738
1742643389456900900,3.33890087890625,-0.3873650133609772,0.12767000496387482,0.2978000044822693
1742643389472793300,3.35479345703125,-0.3873650133609772,0.12767000496387482,0.2978000044822693
1742643389488686000,3.37068603515625,-0.37394100427627563,0.04566400125622749,0.23773300647735596
1742643389504578800,3.386578857421875,-0.2515789866447449,0.017535999417304993,0.10888099670410156
1742643389520471600,3.402471435546875,-0.11561600118875504,0.02963699959218502,0.07499899715185165
1742643389536364300,3.4183642578125,-0.08862899988889694,0.041026998311281204,0.08172900229692459
1742643389552257800,3.4342578125,-0.08862899988889694,0.041026998311281204,0.08172900229692459
1742643389568149500,3.4501494140625,-0.020805999636650085,0.024562999606132507,0.15600800514221191
1742643389584042000,3.4660419921875,-0.08921799808740616,0.02123500034213066,0.1479019969701767
1742643389599934200,3.481934326171875,0.005799999926239252,0.017551999539136887,0.05796299874782562
1742643389615826200,3.497826171875,0.04633700102567673,0.027303999289870262,0.049897998571395874
1742643389631718400,3.513718505859375,0.04633700102567673,0.027303999289870262,0.049897998571395874
1742643389647611100,3.529611083984375,-0.04932300001382828,0.1051739975810051,0.0012969999806955457
1742643389663504000,3.54550390625,-0.06325499713420868,0.08790600299835205,0.021133000031113625
1742643389679396600,3.561396728515625,-0.06354200094938278,0.01654900051653385,0.04174700006842613
1742643389695289600,3.57728955078125,-0.063789002597332,0.04093199968338013,0.022495999932289124
1742643389711182600,3.5931826171875,-0.063789002597332,0.04093199968338013,0.022495999932289124
1742643389727076000,3.609076171875,0.044961001724004745,0.05197799950838089,-0.06395699828863144
1742643389742969600,3.624969482421875,-0.10505499690771103,0.008767999708652496,-0.08184699714183807
1742643389758863000,3.640863037109375,0.0037499999161809683,-0.04782000184059143,-0.044422999024391174
1742643389774756000,3.656756103515625,0.126227006316185,-0.049713000655174255,-0.07391200214624405
1742643389790647600,3.6726474609375,0.126227006316185,-0.049713000655174255,-0.07391200214624405
1742643389806540800,3.688540771484375,0.1670590043067932,-0.010529999621212482,-0.12896400690078735
1742643389822431200,3.70443115234375,-0.009947000071406364,-0.011997000314295292,-0.08674000203609467
1742643389838321400,3.7203212890625,-0.06432700157165527,0.0003330000035930425,0.06542100012302399
1742643389854211300,3.73621142578125,-0.06432700157165527,0.0003330000035930425,0.06542100012302399
1742643389870101500,3.7521015625,-0.009723999537527561,-0.0007910000276751816,0.00012700000661425292
1742643389885991400,3.767991455078125,-0.05046600103378296,-0.0016270000487565994,0.0028689999599009752
1742643389901883000,3.7838828125,-0.050353001803159714,-0.015591000206768513,0.005444000009447336
1742643389917773300,3.799773193359375,0.004244999960064888,-0.08337000012397766,-0.059967998415231705
1742643389933664800,3.815664794921875,0.004244999960064888,-0.08337000012397766,-0.059967998415231705
1742643389949556500,3.831556396484375,0.22229400277137756,-0.055112000554800034,-0.016377000138163567
1742643389965447400,3.847447509765625,0.2360219955444336,-0.0533519983291626,0.013260999694466591
1742643389981339100,3.863339111328125,0.031801000237464905,-0.010339999571442604,0.06957399845123291
1742643389997229600,3.8792294921875,0.031867001205682755,-0.048948999494314194,0.04377700015902519
1742643390013122300,3.895122314453125,0.031867001205682755,-0.048948999494314194,0.04377700015902519
1742643390029015300,3.911015380859375,0.004681000020354986,-0.019620999693870544,0.031307999044656754
1742643390044908300,3.926908203125,-0.049775999039411545,-0.017666000872850418,0.04537700116634369
1742643390060801800,3.9428017578125,-0.09066399931907654,-0.029423000290989876,0.08554399758577347
1742643390076693200,3.958693359375,-0.14522899687290192,-0.04121299833059311,0.1652590036392212
1742643390092583700,3.974583740234375,-0.14522899687290192,-0.04121299833059311,0.1652590036392212
1742643390108475400,3.990475341796875,0.0044450000859797,0.001420999993570149,0.16176599264144897
1742643390124366300,4.006366455078125,-0.02302500046789646,0.016714999452233315,0.25176000595092773
1742643390140257800,4.0222578125,0.3308050036430359,0.38583099842071533,0.20409800112247467
1742643390156148500,4.0381484375,-0.1462250053882599,0.4681150019168854,-0.007344000041484833
1742643390172038400,4.054038330078125,-0.1462250053882599,0.4681150019168854,-0.007344000041484833
1742643390187930000,4.06993017578125,0.09853799641132355,-0.17253899574279785,0.36526501178741455
1742643390203821600,4.085821533203125,0.17973600327968597,-0.2825790047645569,0.4494140148162842
1742643390219711500,4.10171142578125,-0.42020198702812195,-0.161188006401062,0.43600699305534363
1742643390235604000,4.11760400390625,-0.5299389958381653,-0.18938599526882172,0.4612570106983185
1742643390251497200,4.133497314453125,-0.5299389958381653,-0.18938599526882172,0.4612570106983185
1742643390267389700,4.1493896484375,-0.5853310227394104,-0.543304979801178,0.4979180097579956
1742643390283281700,4.16528173828125,-0.3956789970397949,-0.37833699584007263,0.4239549934864044
1742643390299174000,4.181173828125,-0.39671701192855835,0.7670339941978455,-0.058031998574733734
1742643390315064800,4.19706494140625,-0.39671701192855835,0.7670339941978455,-0.058031998574733734
1742643390330954000,4.2129541015625,0.32415398955345154,0.0462069995701313,-0.03485599905252457
1742643390346845700,4.228845703125,0.7454230189323425,-0.3613480031490326,0.0031950001139193773
1742643390362738700,4.24473876953125,0.3631350100040436,-0.0604499988257885,0.1377670019865036
1742643390386574300,4.26857421875,0.17158600687980652,0.15939399600028992,0.04205700010061264
1742643390402466600,4.284466552734375,0.08904600143432617,0.24417699873447418,-0.07986900210380554
1742643390418358300,4.300358154296875,-0.11600899696350098,0.05685900151729584,0.0038399999029934406
1742643390434250000,4.31625,-0.11600899696350098,0.05685900151729584,0.0038399999029934406
1742643390450142700,4.332142822265625,-0.1984120011329651,-0.0762920007109642,0.08879999816417694
1742643390466033700,4.34803369140625,-0.2671169936656952,-0.046441998332738876,0.025280000641942024
1742643390481926700,4.3639267578125,-0.10413400083780289,0.03716199845075607,-0.11774499714374542
1742643390497819400,4.3798193359375,-0.1316239982843399,0.06525400280952454,-0.08054599910974503
1742643390513711900,4.3957119140625,-0.1316239982843399,0.06525400280952454,-0.08054599910974503
1742643390529604000,4.41160400390625,0.01819000020623207,-0.002363000065088272,-0.03982099890708923
1742643390545496000,4.42749609375,0.05916300043463707,-0.0019809999503195286,-0.06538400053977966
1742643390561388000,4.443387939453125,0.08654599636793137,0.011788999661803246,0.018420999869704247
1742643390577279700,4.45927978515625,-0.07677900046110153,0.01078800018876791,0.06103400141000748
1742643390593172700,4.4751728515625,-0.07677900046110153,0.01078800018876791,0.06103400141000748
1742643390609065000,4.49106494140625,-0.06302899867296219,-0.004761999938637018,-0.018803000450134277
1742643390624957200,4.506957275390625,-0.03566199913620949,-0.04748300090432167,-0.016954999417066574
1742643390640849000,4.522848876953125,0.05978500097990036,-0.06220100075006485,-0.015387999825179577
1742643390656743200,4.5387431640625,0.0326399989426136,-0.049205001443624496,-0.0003229999856557697
1742643390672637700,4.5546376953125,0.0326399989426136,-0.049205001443624496,-0.0003229999856557697
1742643390688531500,4.570531494140625,-0.07622800022363663,-0.049713000655174255,0.02829200029373169
1742643390704425200,4.58642529296875,-0.13062399625778198,-0.0772399976849556,-0.011284000240266323
1742643390720317700,4.602317626953125,-0.07606399804353714,-0.11766500025987625,-0.09182299673557281
1742643390736211200,4.618211181640625,-0.06237199902534485,-0.10217499732971191,-0.10434100031852722
1742643390752104200,4.634104248046875,-0.06237199902534485,-0.10217499732971191,-0.10434100031852722
1742643390767996400,4.649996337890625,0.019418999552726746,-0.05814199894666672,-0.0896340012550354
1742643390783887400,4.665887451171875,-0.07585100084543228,-0.05417599901556969,-0.0884609967470169
1742643390799780600,4.681780517578125,-0.11662399768829346,-0.09045200049877167,-0.04615899920463562
1742643390815672300,4.69767236328125,-0.11649800091981888,-0.12603500485420227,-0.08494199812412262
1742643390831565300,4.7135654296875,-0.11649800091981888,-0.12603500485420227,-0.08494199812412262
1742643390847459600,4.72945947265625,0.060756001621484756,-0.038871001452207565,-0.17715300619602203
1742643390863353000,4.74535302734375,-0.020692000165581703,-0.07434900104999542,-0.1726980060338974
1742643390879246800,4.761246826171875,-0.11569300293922424,-0.06915599852800369,-0.09901200234889984
1742643390895138600,4.777138671875,-0.11528699845075607,-0.1048860028386116,-0.13319799304008484
1742643390911030800,4.79303076171875,-0.11528699845075607,-0.1048860028386116,-0.13319799304008484
1742643390926923500,4.808923583984375,0.035020001232624054,-0.07260599732398987,-0.17963799834251404
1742643390942816800,4.824816650390625,0.03557800129055977,-0.09488700330257416,-0.21113599836826324
1742643390958708000,4.8407080078125,-0.018324999138712883,-0.11723300069570541,-0.16040299832820892
1742643390974600000,4.856599853515625,-0.11309699714183807,-0.11232099682092667,-0.1504420042037964
1742643390990492700,4.87249267578125,-0.11309699714183807,-0.11232099682092667,-0.1504420042037964
1742643391006386200,4.88838623046875,-0.017177000641822815,-0.10718599706888199,-0.20821599662303925
1742643391022279200,4.904279052734375,-0.0029670000076293945,-0.10168100148439407,-0.21102799475193024
1742643391038171000,4.9201708984375,-0.029594000428915024,-0.08234000205993652,-0.1994830071926117
1742643391054064000,4.936064208984375,-0.029594000428915024,-0.08234000205993652,-0.1994830071926117
1742643391069956600,4.95195654296875,-0.028965000063180923,-0.11738999933004379,-0.1873449981212616
1742643391085848000,4.96784814453125,0.03975699841976166,-0.07055400311946869,-0.22945299744606018
1742643391101739500,4.983739501953125,0.02674099989235401,-0.10524599999189377,-0.21698300540447235
1742643391117632800,4.9996328125,0.06822799891233444,-0.098921999335289,-0.28541600704193115
1742643391133525800,5.01552587890625,0.06822799891233444,-0.098921999335289,-0.28541600704193115
1742643391149420000,5.031419921875,0.0007880000048317015,-0.0655049979686737,-0.31189998984336853
1742643391165312800,5.047312744140625,-0.025784999132156372,-0.10028000175952911,-0.25600001215934753
1742643391181204700,5.063204833984375,0.002111000008881092,-0.0807500034570694,-0.24069200456142426
1742643391197097000,5.079096923828125,0.0027600000612437725,-0.08870500326156616,-0.23861399292945862
1742643391212989200,5.0949892578125,0.0027600000612437725,-0.08870500326156616,-0.23861399292945862
1742643391228882200,5.110882080078125,-0.11918000131845474,-0.042587000876665115,-0.20893199741840363
1742643391252722200,5.13472216796875,-0.009589999914169312,-0.06500200182199478,-0.23355300724506378
1742643391268616200,5.1506162109375,0.08636900037527084,-0.03337699919939041,-0.2714709937572479
1742643391284509200,5.16650927734375,0.10058899968862534,-0.02934800088405609,-0.24107800424098969
1742643391300402700,5.182402587890625,-0.08950600028038025,-0.012117999605834484,-0.2511950135231018
1742643391316295200,5.198295166015625,-0.0889350026845932,0.004724999889731407,-0.2611269950866699
1742643391332188200,5.214188232421875,-0.0889350026845932,0.004724999889731407,-0.2611269950866699
1742643391348081400,5.230081298828125,-0.14287500083446503,0.007586999796330929,-0.21668000519275665
1742643391363975000,5.245974853515625,-0.18324899673461914,-0.017047999426722527,-0.17310300469398499
1742643391379867400,5.261867431640625,-0.06023700162768364,-0.014644999988377094,-0.17150400578975677
1742643391395759400,5.27775927734375,-0.005367999896407127,-0.012446999549865723,-0.19787099957466125
1742643391411650800,5.29365087890625,-0.005367999896407127,-0.012446999549865723,-0.19787099957466125
1742643391427542000,5.3095419921875,0.04947900027036667,-0.051336999982595444,-0.2788270115852356
1742643391443434000,5.32543408203125,-0.018271999433636665,-0.049600999802351,-0.2371709942817688
1742643391459327000,5.341326904296875,0.10464999824762344,-0.034407999366521835,-0.27687498927116394
1742643391475221500,5.357221435546875,-0.08569999784231186,-0.005789000075310469,-0.3160119950771332
1742643391491115800,5.37311572265625,-0.08569999784231186,-0.005789000075310469,-0.3160119950771332
1742643391507005400,5.38900537109375,-0.20795400440692902,0.11782000213861465,-0.3544960021972656
1742643391522897200,5.404897216796875,-0.08504600077867508,0.050363000482320786,-0.32405999302864075
1742643391538790100,5.4207900390625,-0.6567990183830261,-0.28942400217056274,-0.2659580111503601
1742643391554683400,5.436683349609375,-2.073065996170044,0.28296801447868347,0.1443610042333603
1742643391570578000,5.452577880859375,-2.073065996170044,0.28296801447868347,0.1443610042333603
1742643391586472000,5.468471923828125,-0.6698899865150452,1.275668978691101,-0.7650579810142517
1742643391602362600,5.484362548828125,-0.4788689911365509,0.5630419850349426,-0.8949599862098694
1742643391618254800,5.5002548828125,0.32512998580932617,-0.42335599660873413,-2.0651280879974365
1742643391634147000,5.51614697265625,0.6115300059318542,-0.9594330191612244,-2.609541893005371
1742643391650038500,5.53203857421875,0.6115300059318542,-0.9594330191612244,-2.609541893005371
1742643391665930500,5.547930419921875,1.1428539752960205,-1.3279370069503784,-2.8250949382781982
1742643391681824300,5.56382421875,1.4010200500488281,-1.451714038848877,-3.042188882827759
1742643391697717000,5.579717041015625,1.8889379501342773,-1.3937549591064453,-3.3310389518737793
1742643391713609200,5.595609130859375,2.1699130535125732,-1.339624047279358,-3.5821750164031982
1742643391729501400,5.61150146484375,2.1699130535125732,-1.339624047279358,-3.5821750164031982
1742643391745394200,5.627394287109375,2.0526840686798096,-1.2809009552001953,-3.681662082672119
1742643391761287200,5.643287109375,1.6312869787216187,-1.0141290426254272,-3.853868007659912
1742643391777179600,5.6591796875,1.2847189903259277,-0.6791930198669434,-3.8136870861053467
1742643391793073400,5.675073486328125,1.2847189903259277,-0.6791930198669434,-3.8136870861053467
1742643391808967200,5.69096728515625,1.3378390073776245,-0.5353569984436035,-3.8637659549713135
1742643391824861200,5.706861083984375,1.204198956489563,-0.46905800700187683,-3.5955419540405273
1742643391848700200,5.7307001953125,0.8174710273742676,-0.5722839832305908,-2.9166440963745117
1742643391864592400,5.74659228515625,1.1192879676818848,-0.6872180104255676,-2.5572290420532227
1742643391880484000,5.762484130859375,1.9058469533920288,-0.7426319718360901,-2.422590970993042
1742643391896377600,5.778377685546875,2.0747499465942383,-0.7210339903831482,-2.0109829902648926
1742643391912271000,5.79427099609375,2.0747499465942383,-0.7210339903831482,-2.0109829902648926
1742643391928164000,5.8101640625,2.4864799976348877,-0.7671329975128174,-0.43072399497032166
1742643391944059000,5.826058837890625,1.9453840255737305,-0.0064210002310574055,0.40501800179481506
1742643391959950600,5.84195068359375,-0.4151490032672882,0.9081029891967773,2.5556399822235107
1742643391975844900,5.857844970703125,-1.7366780042648315,1.243919014930725,3.9566309452056885
1742643391991737000,5.873737060546875,-1.7366780042648315,1.243919014930725,3.9566309452056885
1742643392007629600,5.889629638671875,-2.5304911136627197,1.4114190340042114,4.675175189971924
1742643392023522300,5.905522216796875,-2.4588658809661865,1.1943049430847168,4.665486812591553
1742643392039414300,5.921414306640625,-2.51754093170166,0.9211339950561523,5.126838207244873
1742643392055305500,5.937305419921875,-2.180022954940796,1.036681056022644,4.869462013244629
1742643392071195100,5.953195068359375,-2.180022954940796,1.036681056022644,4.869462013244629
1742643392087086800,5.9690869140625,-1.3838510513305664,0.532505989074707,4.84303617477417
1742643392102978300,5.984978271484375,-0.5690739750862122,0.319350004196167,4.644668102264404
1742643392118870000,6.0008701171875,0.6010299921035767,0.09737300127744675,4.292219161987305
1742643392134762000,6.016761962890625,1.0736010074615479,0.12436799705028534,3.765666961669922
1742643392150655500,6.032655517578125,1.0736010074615479,0.12436799705028534,3.765666961669922
1742643392166549000,6.048549072265625,0.9935470223426819,-0.024114999920129776,3.204935073852539
1742643392182442500,6.0644423828125,0.7256969809532166,-0.0846870020031929,2.7890050411224365
1742643392198336000,6.0803359375,0.27045199275016785,-0.15034599602222443,2.656996965408325
1742643392214229800,6.096229736328125,0.17311400175094604,-0.1523589938879013,2.611521005630493
1742643392230123000,6.112123046875,0.17311400175094604,-0.1523589938879013,2.611521005630493
1742643392246014000,6.128013916015625,0.176146999001503,-0.19500799477100372,2.6680541038513184
1742643392269851100,6.15185107421875,0.0902710035443306,-0.3180150091648102,2.2481749057769775
1742643392285744000,6.167744140625,0.10743799805641174,-0.29115599393844604,1.9797589778900146
1742643392309584400,6.19158447265625,0.0926709994673729,-0.15939399600028992,2.5295450687408447
1742643392325476400,6.207476318359375,0.7006250023841858,0.23940600454807281,2.641294002532959
1742643392341368800,6.223368896484375,0.774278998374939,-0.2934330105781555,1.9471640586853027
1742643392357262300,6.239262451171875,1.185981035232544,-0.5330229997634888,2.2041139602661133
1742643392373155600,6.255155517578125,1.185981035232544,-0.5330229997634888,2.2041139602661133
1742643392389048300,6.27104833984375,0.5877119898796082,-0.7801600098609924,2.878664016723633
1742643392404939000,6.28693896484375,0.32772499322891235,-0.6282699704170227,3.0660550594329834
1742643392420830700,6.302830810546875,0.4458410143852234,-0.3648099899291992,3.3284709453582764
1742643392436722200,6.31872216796875,0.6000769734382629,-0.10198400169610977,3.3579258918762207
1742643392452614000,6.33461376953125,0.6000769734382629,-0.10198400169610977,3.3579258918762207
1742643392468503000,6.3505029296875,0.6410530209541321,0.07685700058937073,3.1215999126434326
1742643392484392200,6.36639208984375,0.7323529720306396,0.022414999082684517,2.9359560012817383
1742643392500284700,6.38228466796875,0.9547719955444336,-0.2655799984931946,3.165386915206909
1742643392516177000,6.398177001953125,0.9531639814376831,-0.48674601316452026,3.2899739742279053
1742643392532068900,6.41406884765625,0.9531639814376831,-0.48674601316452026,3.2899739742279053
1742643392547960800,6.4299609375,1.136752963066101,-0.5710110068321228,3.178934097290039
1742643392563852300,6.445852294921875,1.0710079669952393,-0.5996760129928589,2.7976620197296143
1742643392579743500,6.461743408203125,0.7966139912605286,-0.6950209736824036,2.499440908432007
1742643392595637000,6.477636962890625,0.5324299931526184,-0.8842290043830872,2.2327499389648438
1742643392611530000,6.493530029296875,0.5324299931526184,-0.8842290043830872,2.2327499389648438
1742643392627423200,6.50942333984375,0.30778801441192627,-1.0035209655761719,1.8125230073928833
1742643392643316200,6.525316162109375,0.342633992433548,-0.9151049852371216,1.1066440343856812
1742643392659209700,6.541209716796875,0.27140599489212036,-0.4269320070743561,0.3367669880390167
1742643392675103200,6.557103271484375,0.20444999635219574,0.06585700064897537,-0.26447799801826477
1742643392690994700,6.57299462890625,0.20444999635219574,0.06585700064897537,-0.26447799801826477
1742643392706888700,6.588888671875,0.7004979848861694,0.045527998358011246,-1.570294976234436
1742643392722783700,6.60478369140625,0.3894430100917816,0.4429660141468048,-4.285603046417236
1742643392738675500,6.620675537109375,0.1822659969329834,0.503777027130127,-5.148791790008545
1742643392754569700,6.63656982421875,-0.2341109961271286,0.4599910080432892,-5.140192031860352
1742643392770459000,6.652458984375,-0.2341109961271286,0.4599910080432892,-5.140192031860352
1742643392786350800,6.668350830078125,-1.2298719882965088,0.05597100034356117,-4.67155122756958
1742643392802242600,6.68424267578125,-2.142483949661255,-0.24766400456428528,-4.063761234283447
1742643392818135300,6.70013525390625,-1.858994960784912,-0.2405250072479248,-3.9212729930877686
1742643392834027300,6.71602734375,-1.858994960784912,-0.2405250072479248,-3.9212729930877686
1742643392849919700,6.731919677734375,-1.4037120342254639,-0.027365000918507576,-4.028412818908691
1742643392865814500,6.747814453125,-0.5627279877662659,0.20706099271774292,-3.8871219158172607
1742643392881707800,6.763707763671875,0.2237969934940338,0.4215349853038788,-3.7904889583587646
1742643392897601300,6.779601318359375,0.43365800380706787,0.4035559892654419,-3.448775053024292
1742643392913493200,6.7954931640625,0.4034479856491089,0.2926520109176636,-3.1061348915100098
1742643392929387800,6.8113876953125,0.4034479856491089,0.2926520109176636,-3.1061348915100098
1742643392945282300,6.8272822265625,-0.35761401057243347,0.05027100071310997,-2.9280190467834473
1742643392961174800,6.8431748046875,-0.38076698780059814,-0.09153799712657928,-2.8489530086517334
1742643392977066500,6.85906640625,-0.4553920030593872,-0.17052699625492096,-2.7529640197753906
1742643392992958500,6.87495849609375,-0.4553920030593872,-0.17052699625492096,-2.7529640197753906
1742643393008852500,6.8908525390625,-0.36174899339675903,-0.0037249999586492777,-2.5709030628204346
1742643393024744400,6.906744384765625,-0.01619900017976761,0.19535599648952484,-2.3935370445251465
1742643393040636700,6.92263671875,0.7735520005226135,0.4274649918079376,-2.4460508823394775
1742643393056528600,6.938528564453125,1.164011001586914,0.29653701186180115,-2.7514829635620117
1742643393072419800,6.954419921875,1.164011001586914,0.29653701186180115,-2.7514829635620117
1742643393088312000,6.97031201171875,1.4010210037231445,-0.14595800638198853,-3.4378979206085205
1742643393104205600,6.98620556640625,1.4164719581604004,-0.43525099754333496,-3.435774087905884
1742643393120098600,7.0020986328125,1.0467369556427002,-0.4603259861469269,-3.260114908218384
1742643393135991000,7.017990966796875,0.5642459988594055,-0.45441699028015137,-3.3820409774780273
1742643393151883300,7.03388330078125,0.5642459988594055,-0.45441699028015137,-3.3820409774780273
1742643393167774500,7.0497744140625,0.5132349729537964,-0.5793899893760681,-3.8480238914489746
1742643393183668000,7.06566796875,0.770218014717102,-0.672236979007721,-3.687532901763916
1742643393199560400,7.081560546875,1.1714390516281128,-0.8705610036849976,-3.382944107055664
1742643393215452200,7.0974521484375,1.2533890008926392,-0.9304760098457336,-3.2623789310455322
1742643393231344400,7.113344482421875,1.2533890008926392,-0.9304760098457336,-3.2623789310455322
1742643393247237600,7.129237548828125,1.1923019886016846,-0.8781520128250122,-3.405503034591675
1742643393263131600,7.145131591796875,1.069409966468811,-0.7399979829788208,-3.214250087738037
1742643393279026400,7.1610263671875,0.7490689754486084,-0.5980709791183472,-3.0078179836273193
1742643393302868000,7.184867919921875,-0.05323699861764908,-0.4538719952106476,-2.671083927154541
1742643393318762800,7.2007626953125,-0.680417001247406,-0.5380780100822449,-1.5480560064315796
1742643393334657800,7.21665771484375,-0.680417001247406,-0.5380780100822449,-1.5480560064315796
1742643393350550500,7.232550537109375,-0.08136899769306183,-0.5084130167961121,-0.7460299730300903
1742643393366444500,7.248444580078125,0.016227999702095985,-0.3101870119571686,-0.19936099648475647
1742643393382337300,7.264337158203125,-0.004209999926388264,-0.36557701230049133,0.47124001383781433
1742643393398232800,7.28023291015625,0.04933999851346016,-0.06297300010919571,1.933087944984436
1742643393414125000,7.296125,0.04933999851346016,-0.06297300010919571,1.933087944984436
1742643393430017300,7.312017333984375,0.1234930008649826,0.25619399547576904,2.92096209526062
1742643393445910500,7.32791064453125,-0.002976000076159835,0.42124998569488525,3.367158889770508
1742643393461803500,7.343803466796875,-0.04667099937796593,0.4041840136051178,3.661520004272461
1742643393477696300,7.3596962890625,-0.1169549971818924,0.19323700666427612,3.735646963119507
1742643393493587200,7.375587158203125,-0.1169549971818924,0.19323700666427612,3.735646963119507
1742643393509479400,7.3914794921875,-0.256630003452301,-0.06140400096774101,3.7418670654296875
1742643393525373700,7.407373779296875,-0.31798499822616577,-0.19842299818992615,3.8317339420318604
1742643393541267500,7.423267333984375,-0.5085449814796448,-0.20777100324630737,3.682827949523926
1742643393557162200,7.439162353515625,-0.6288170218467712,-0.26738399267196655,3.482741117477417
1742643393573057000,7.45505712890625,-0.6288170218467712,-0.26738399267196655,3.482741117477417
1742643393588952300,7.470952392578125,-0.4250349998474121,-0.3493959903717041,3.3006699085235596
1742643393604845600,7.486845458984375,-0.25161299109458923,-0.2070470005273819,2.8759899139404297
1742643393620739000,7.502739013671875,-0.4642379879951477,-0.1799210011959076,2.6351211071014404
1742643393636633300,7.51863330078125,-0.5880889892578125,-0.42922699451446533,2.5871310234069824
1742643393652526800,7.53452685546875,-0.5880889892578125,-0.42922699451446533,2.5871310234069824
1742643393668420000,7.550420166015625,-0.5009639859199524,-0.5579040050506592,2.872718095779419
1742643393684312800,7.566312744140625,-0.39316999912261963,-0.5905579924583435,2.975632905960083
1742643393700204300,7.582204345703125,-0.1687539964914322,-0.38795799016952515,3.0320639610290527
1742643393716096500,7.598096435546875,0.077565997838974,-0.3730959892272949,2.8784019947052
1742643393731990000,7.613989990234375,0.077565997838974,-0.3730959892272949,2.8784019947052
1742643393747882000,7.629882080078125,0.4961149990558624,-0.433665007352829,2.4895219802856445
1742643393763773700,7.645773681640625,0.5967829823493958,-0.42647498846054077,2.5416688919067383
1742643393779666200,7.661666259765625,0.7991909980773926,-0.2762869894504547,3.252563953399658
1742643393795558100,7.67755810546875,0.8469820022583008,-0.11921600252389908,3.488992929458618
1742643393811451000,7.693450927734375,0.8469820022583008,-0.11921600252389908,3.488992929458618
1742643393827342300,7.70934228515625,0.7266259789466858,0.020893000066280365,3.599015951156616
1742643393843234800,7.72523486328125,0.7102869749069214,0.12803499400615692,3.7067389488220215
1742643393859128000,7.741128173828125,0.70169597864151,0.16489599645137787,3.977531909942627
1742643393875021000,7.75702099609375,0.8224400281906128,0.2264930009841919,3.976223945617676
1742643393890913800,7.772913818359375,0.8224400281906128,0.2264930009841919,3.976223945617676
1742643393906805000,7.788804931640625,1.1145360469818115,0.3182219862937927,3.8260340690612793
1742643393922696700,7.80469677734375,1.1699270009994507,0.4400849938392639,3.492089033126831
1742643393938588400,7.82058837890625,1.3565800189971924,0.4597580134868622,3.4148800373077393
1742643393954478000,7.83647802734375,1.4696849584579468,0.449880987405777,3.621598958969116
1742643393970369300,7.852369384765625,1.4696849584579468,0.449880987405777,3.621598958969116
1742643393986260200,7.86826025390625,1.3716470003128052,0.3887630105018616,3.7964680194854736
1742643394002151400,7.8841513671875,1.3764599561691284,0.5614979863166809,3.2624928951263428
1742643394018041900,7.900041748046875,1.2951849699020386,0.5864560008049011,3.0341548919677734
1742643394033932000,7.91593212890625,1.1424249410629272,0.5885369777679443,2.801177978515625
1742643394049823700,7.93182373046875,1.1424249410629272,0.5885369777679443,2.801177978515625
1742643394065714000,7.9477138671875,0.8777379989624023,0.3798379898071289,2.7821109294891357
1742643394081604400,7.963604248046875,0.937300980091095,0.23559899628162384,2.7184629440307617
1742643394097494800,7.979494873046875,1.2943129539489746,0.11678600311279297,2.7193429470062256
1742643394113388500,7.995388427734375,1.2943129539489746,0.11678600311279297,2.7193429470062256
1742643394129281800,8.01128173828125,1.527127981185913,0.07887600362300873,2.4716761112213135
1742643394145176000,8.027176025390625,1.3909480571746826,0.05499099940061569,2.3702049255371094
1742643394161067300,8.0430673828125,1.0905959606170654,-0.03516500070691109,2.0337939262390137
1742643394176960000,8.0589599609375,0.9133139848709106,-0.09525600075721741,1.695497989654541
1742643394192852200,8.074852294921875,0.9133139848709106,-0.09525600075721741,1.695497989654541
1742643394208743700,8.09074365234375,0.9701099991798401,-0.24694199860095978,1.1538809537887573
1742643394224635000,8.106634765625,1.098449945449829,-0.3805530071258545,1.226412057876587
1742643394240526800,8.12252685546875,1.0258729457855225,-0.3592970073223114,1.1488900184631348
1742643394256420000,8.138420166015624,0.8617550134658813,-0.17020800709724426,0.689067006111145
1742643394272313300,8.154313232421876,0.8617550134658813,-0.17020800709724426,0.689067006111145
1742643394288205800,8.170205810546875,0.5932850241661072,0.07605600357055664,-0.07149899750947952
1742643394304098600,8.1860986328125,0.38398298621177673,0.3354420065879822,-0.5352669954299927
1742643394319990500,8.201990478515626,-0.07867100089788437,0.2519359886646271,-0.8249179720878601
1742643394335882000,8.217882080078125,-0.4620929956436157,0.38266900181770325,-1.109536051750183
1742643394351775500,8.233775390625,-0.4620929956436157,0.38266900181770325,-1.109536051750183
1742643394367668000,8.24966796875,-0.9207929968833923,0.6023370027542114,-1.3768219947814941
1742643394383560400,8.265560546875,-1.110226035118103,0.6353830099105835,-1.7039270401000977
1742643394399452200,8.2814521484375,-1.2571359872817993,0.7017520070075989,-1.7501349449157715
1742643394415343900,8.29734375,-1.2835700511932373,0.7504400014877319,-1.9422719478607178
1742643394431235800,8.31323583984375,-1.2835700511932373,0.7504400014877319,-1.9422719478607178
1742643394447128800,8.32912890625,-1.351091980934143,0.72461998462677,-2.4543330669403076
1742643394463021300,8.345021240234376,-1.2813750505447388,0.5936970114707947,-2.33052396774292
1742643394478912800,8.360912841796875,-1.1995790004730225,0.4976139962673187,-2.103571891784668
1742643394494803200,8.37680322265625,-1.1995790004730225,0.4976139962673187,-2.103571891784668
1742643394510695000,8.39269482421875,-1.2493029832839966,0.5908160209655762,-2.0148849487304688
1742643394526586600,8.408586669921876,-1.1196999549865723,0.6307529807090759,-2.2033069133758545
1742643394542479600,8.424479736328125,-0.8657979965209961,0.6307510137557983,-2.4648311138153076
1742643394558371600,8.44037158203125,-0.7740089893341064,0.6034430265426636,-2.704296112060547
1742643394574264300,8.456264404296874,-0.7503610253334045,0.576911985874176,-2.54203200340271
1742643394590157300,8.4721572265625,-0.7503610253334045,0.576911985874176,-2.54203200340271
1742643394606049300,8.48804931640625,-0.8643850088119507,0.6750699877738953,-2.388705015182495
1742643394621942500,8.503942626953124,-0.8714609742164612,0.9519810080528259,-2.5993969440460205
1742643394637835500,8.51983544921875,-0.785082995891571,0.9842770099639893,-2.737957000732422
1742643394653725700,8.5357255859375,-0.785082995891571,0.9842770099639893,-2.737957000732422
1742643394669616000,8.5516162109375,-0.7143399715423584,0.8122929930686951,-2.8044369220733643
1742643394685507000,8.567507080078125,-0.7421799898147583,0.6537700295448303,-2.6791419982910156
1742643394701398500,8.5833984375,-0.9230780005455017,0.6307129859924316,-2.6210179328918457
1742643394717289700,8.599289794921875,-0.7663639783859253,0.6337850093841553,-2.533838987350464
1742643394733184500,8.6151845703125,-0.7663639783859253,0.6337850093841553,-2.533838987350464
1742643394749077500,8.631077392578124,-0.36729300022125244,0.7037050127983093,-2.4580559730529785
1742643394764970200,8.64697021484375,-0.24386200308799744,0.6907770037651062,-2.3947880268096924
1742643394788811500,8.6708115234375,-0.3554610013961792,0.6633949875831604,-2.5354959964752197
1742643394804704800,8.686704833984376,-0.3346579968929291,0.6625819802284241,-2.5546200275421143
1742643394820598800,8.702598876953125,-0.14046500623226166,0.6204119920730591,-2.46561598777771
1742643394836494000,8.718494140625,-0.08592099696397781,0.6055160164833069,-2.403892993927002
1742643394852385500,8.734385498046874,-0.08592099696397781,0.6055160164833069,-2.403892993927002
1742643394868278800,8.75027880859375,-0.1847030073404312,0.6326280236244202,-2.5058369636535645
1742643394884170500,8.76617041015625,-0.12365599721670151,0.7157660126686096,-2.486320972442627
1742643394900062500,8.7820625,-0.13414700329303741,0.745514988899231,-2.644737958908081
1742643394915957000,8.79795703125,-0.18870200216770172,0.7483109831809998,-2.6398260593414307
1742643394931850000,8.81385009765625,-0.18870200216770172,0.7483109831809998,-2.6398260593414307
1742643394947742700,8.82974267578125,-0.3553610146045685,0.7508140206336975,-2.553316116333008
1742643394963634700,8.845634765625,-0.29368099570274353,0.6574879884719849,-2.3180179595947266
1742643394979528400,8.861528564453126,-0.08550500124692917,0.5233640074729919,-1.9630990028381348
1742643394995422200,8.877422119140626,0.07849299907684326,0.3628289997577667,-1.6674439907073975
1742643395011316700,8.893316650390625,0.07849299907684326,0.3628289997577667,-1.6674439907073975
1742643395027210000,8.9092099609375,0.021309999749064445,0.24468299746513367,-1.3387999534606934
1742643395043102200,8.925102294921874,0.07015199959278107,0.1695539951324463,-1.1693439483642578
1742643395058994700,8.94099462890625,0.18457600474357605,0.16492900252342224,-0.996068000793457
1742643395074886000,8.956885986328125,0.18457600474357605,0.16492900252342224,-0.996068000793457
1742643395090777000,8.972777099609376,-0.09812299907207489,0.14925700426101685,-0.5215479731559753
1742643395106668500,8.98866845703125,-0.19182200729846954,0.06837800145149231,-0.25137200951576233
1742643395122560000,9.00456005859375,-0.36845600605010986,0.031422000378370285,-0.11703699827194214
1742643395138453000,9.020452880859375,-0.7093600034713745,0.024582000449299812,-0.07652799785137177
1742643395154345500,9.036345458984375,-0.7093600034713745,0.024582000449299812,-0.07652799785137177
1742643395170239200,9.0522392578125,-0.5741080045700073,0.04735000059008598,-0.14054599404335022
1742643395186133800,9.0681337890625,-0.5208699703216553,-0.010017000138759613,-0.05211900174617767
1742643395202027500,9.084027587890626,0.0908450037240982,-0.037735000252723694,-0.22391700744628906
1742643395217919700,9.099919677734375,0.26698899269104004,-0.07559599727392197,-0.38402798771858215
1742643395233813000,9.11581298828125,0.26698899269104004,-0.07559599727392197,-0.38402798771858215
1742643395249706500,9.13170654296875,0.04839500039815903,-0.2175540030002594,-0.5137119889259338
1742643395265600000,9.14760009765625,-0.115618996322155,-0.23193000257015228,-0.5386670231819153
1742643395281492700,9.16349267578125,-0.08891700208187103,-0.22857199609279633,-0.5381640195846558
1742643395297385700,9.1793857421875,-0.38912299275398254,-0.2628859877586365,-0.6742299795150757
1742643395313278500,9.195278564453124,-0.6212980151176453,-0.38959500193595886,-0.79585200548172
1742643395329171700,9.211171630859376,-0.6212980151176453,-0.38959500193595886,-0.79585200548172
1742643395345065000,9.22706494140625,-0.29508599638938904,-0.47269800305366516,-0.9310709834098816
1742643395360959200,9.242959228515625,0.1808609962463379,-0.5259159803390503,-1.3107229471206665
1742643395376853000,9.25885302734375,0.3566789925098419,-0.5763970017433167,-1.4908380508422852
1742643395392745200,9.2747451171875,0.3566789925098419,-0.5763970017433167,-1.4908380508422852
1742643395408638500,9.290638427734375,0.3272770047187805,-0.515513002872467,-1.532420039176941
1742643395424531700,9.30653173828125,0.37830600142478943,-0.45217400789260864,-1.7322429418563843
1742643395440424400,9.322424560546875,0.08727999776601791,-0.4416959881782532,-2.0099198818206787
1742643395456317200,9.338317138671876,0.4346660077571869,-0.3764280080795288,-2.2592549324035645
1742643395472211000,9.3542109375,0.4346660077571869,-0.3764280080795288,-2.2592549324035645
1742643395488105500,9.37010546875,0.6164159774780273,-0.03933199867606163,-2.901918888092041
1742643395504000000,9.386,0.7546809911727905,0.10601600259542465,-2.9714388847351074
1742643395519893800,9.401893798828125,1.2165180444717407,-0.2525700032711029,-3.1750741004943848
1742643395535787800,9.417787841796875,2.1502130031585693,-0.5938439965248108,-3.4932870864868164
1742643395551680500,9.433680419921876,2.1502130031585693,-0.5938439965248108,-3.4932870864868164
1742643395567572200,9.449572265625,3.388145923614502,-1.185405969619751,-4.1789069175720215
1742643395583465700,9.4654658203125,4.00302791595459,-1.3609100580215454,-4.560005187988281
1742643395599361000,9.481361083984375,3.9923501014709473,-1.3261189460754395,-5.126817226409912
1742643395615254800,9.4972548828125,3.5994069576263428,-1.2324830293655396,-5.120948791503906
1742643395631150600,9.513150634765625,3.5994069576263428,-1.2324830293655396,-5.120948791503906
1742643395647046100,9.529046142578125,3.054147958755493,-1.013522982597351,-4.9965949058532715
1742643395662939400,9.544939453125,2.6691339015960693,-0.7660030126571655,-4.801155090332031
1742643395678832600,9.56083251953125,2.4973950386047363,-0.42458298802375793,-4.890804767608643
1742643395694725600,9.5767255859375,2.7426040172576904,-0.3835180103778839,-4.77969217300415
1742643395710619000,9.592618896484375,2.7426040172576904,-0.3835180103778839,-4.77969217300415
1742643395726510300,9.60851025390625,3.1461689472198486,-0.5284219980239868,-4.460299015045166
1742643395742401000,9.624401123046875,3.3000519275665283,-0.5309600234031677,-3.7874579429626465
1742643395758292000,9.6402919921875,3.3592000007629395,-0.5037379860877991,-2.9491190910339355
1742643395774182400,9.656182373046875,2.979635000228882,-0.49203601479530334,-2.2467219829559326
1742643395790074000,9.67207421875,2.979635000228882,-0.49203601479530334,-2.2467219829559326
1742643395805965800,9.6879658203125,1.39130699634552,-0.26761001348495483,-1.2897950410842896
1742643395821857800,9.70385791015625,0.03268299996852875,0.26441100239753723,-0.07128799706697464
1742643395837750300,9.719750244140625,-0.36958399415016174,0.4064730107784271,0.7961289882659912
1742643395853643000,9.73564306640625,-0.36958399415016174,0.4064730107784271,0.7961289882659912
1742643395869534700,9.75153466796875,0.17305199801921844,0.5276889801025391,1.272449016571045
1742643395885426400,9.767426513671875,0.0795620009303093,0.4015220105648041,1.4598419666290283
1742643395901317000,9.783317138671874,-0.3302359879016876,0.25463101267814636,1.9688889980316162
1742643395917208800,9.799208740234375,-1.232666015625,0.17134100198745728,3.110524892807007
1742643395933100300,9.815100341796875,-1.232666015625,0.17134100198745728,3.110524892807007
1742643395948991200,9.8309912109375,-2.0756380558013916,0.5031430125236511,3.9923980236053467
1742643395964883500,9.846883544921875,-2.6709930896759033,0.5525230169296265,4.181534767150879
1742643395980777000,9.86277685546875,-2.6968560218811035,0.6324499845504761,4.266980171203613
1742643395996670500,9.87867041015625,-1.9437669515609741,0.8656719923019409,4.432194232940674
1742643396012562400,9.8945625,-1.9437669515609741,0.8656719923019409,4.432194232940674
1742643396028452400,9.910452392578126,-1.0445289611816406,0.777999997138977,5.088386058807373
1742643396044343300,9.92634326171875,-1.2334140539169312,0.5510089993476868,5.410116195678711
1742643396060235800,9.94223583984375,-2.163619041442871,0.20462200045585632,5.715169906616211
1742643396076128000,9.9581279296875,-2.492691993713379,0.08037099987268448,5.681299209594727
1742643396092019500,9.97401953125,-2.492691993713379,0.08037099987268448,5.681299209594727
1742643396107912000,9.989911865234374,-2.3344359397888184,0.2588469982147217,5.326639175415039
1742643396123803100,10.00580322265625,-1.965224027633667,0.3435010015964508,4.914432048797607
1742643396139695000,10.021695068359374,-1.416059970855713,0.2795270085334778,4.6682257652282715
1742643396155587000,10.037587158203126,-0.857001006603241,0.17775599658489227,4.467236042022705
1742643396171479300,10.053479248046875,-0.857001006603241,0.17775599658489227,4.467236042022705
1742643396187371800,10.069371826171874,-0.15220099687576294,0.09476800262928009,3.9072530269622803
1742643396203264500,10.085264404296876,0.18236899375915527,0.029363999143242836,3.492647886276245
1742643396219155000,10.101155029296875,0.12095999717712402,0.007818000391125679,3.3326070308685303
1742643396235047700,10.117047607421876,-0.11739400029182434,0.016524000093340874,3.1012589931488037
1742643396250939100,10.132939208984375,-0.11739400029182434,0.016524000093340874,3.1012589931488037
1742643396266830600,10.14883056640625,-0.3416210114955902,0.10970299690961838,2.776092052459717
1742643396282723300,10.164723388671876,-0.3464469909667969,0.1787710040807724,2.524148941040039
1742643396298615300,10.180615234375,-0.25314098596572876,0.14187699556350708,2.307589054107666
1742643396314507300,10.19650732421875,-0.25314098596572876,0.14187699556350708,2.307589054107666
1742643396330400000,10.21239990234375,-0.046268001198768616,0.10732199996709824,2.1809120178222656
1742643396354238500,10.236238525390625,0.18391700088977814,0.193012997508049,1.8890340328216553
1742643396370130000,10.2521298828125,0.18391700088977814,0.193012997508049,1.8890340328216553
1742643396386023700,10.268023681640624,-0.02167299948632717,0.21700499951839447,1.774304986000061
1742643396401917700,10.283917724609376,-0.12196899950504303,0.06441699713468552,1.6201000213623047
1742643396417810000,10.299809814453125,-0.07531300187110901,-0.0062950002029538155,1.5336300134658813
1742643396433701400,10.315701416015624,-0.07531300187110901,-0.0062950002029538155,1.5336300134658813
1742643396449593300,10.33159326171875,0.13255800306797028,-0.07720600068569183,1.5941740274429321
1742643396465487600,10.347487548828125,0.2569360136985779,-0.05311499908566475,1.5544699430465698
1742643396481380000,10.363380126953125,0.23003600537776947,-0.0021279999054968357,1.4532790184020996
1742643396497272600,10.3792724609375,0.2563660144805908,0.10301800072193146,1.3706270456314087
1742643396513167600,10.395167724609376,0.2563660144805908,0.10301800072193146,1.3706270456314087
1742643396529062100,10.411062255859376,-0.3040210008621216,0.5067930221557617,1.1296210289001465
1742643396544956000,10.426955810546875,-0.06173599883913994,0.5408729910850525,1.5448859930038452
1742643396560848100,10.44284814453125,0.7787520289421082,0.3411349952220917,2.284193992614746
1742643396576742100,10.4587421875,1.0594979524612427,0.20767299830913544,2.41969895362854
1742643396592636400,10.474636474609374,1.0594979524612427,0.20767299830913544,2.41969895362854
1742643396608531000,10.490531005859374,1.1070369482040405,-0.03565400093793869,2.6712839603424072
1742643396624424400,10.506424560546876,0.9073429703712463,-0.1428219974040985,2.8058760166168213
1742643396640316700,10.522316650390625,0.9227870106697083,-0.11367499828338623,3.282500982284546
1742643396656208600,10.538208740234374,0.9754490256309509,-0.07105199992656708,3.4987359046936035
1742643396672100900,10.554100830078125,0.9754490256309509,-0.07105199992656708,3.4987359046936035
1742643396687993600,10.56999365234375,1.3628979921340942,-0.01592399924993515,4.043304920196533
1742643396703885600,10.585885498046874,1.483983039855957,-0.09752000123262405,4.300883769989014
1742643396719778800,10.60177880859375,1.759917974472046,-0.21794499456882477,4.5765299797058105
1742643396735669500,10.61766943359375,2.012444019317627,-0.2260269969701767,4.559837818145752
1742643396751562500,10.6335625,2.012444019317627,-0.2260269969701767,4.559837818145752
1742643396767456500,10.64945654296875,2.1972780227661133,-0.17370499670505524,4.66611909866333
1742643396783349000,10.665348876953125,2.0146679878234863,-0.12928099930286407,4.5777177810668945
1742643396799241000,10.681240966796874,1.9438300132751465,0.014132999815046787,4.404483795166016
1742643396815133000,10.6971328125,2.068450927734375,0.1600240021944046,4.208345890045166
1742643396831024600,10.713024658203125,2.068450927734375,0.1600240021944046,4.208345890045166
1742643396846918100,10.728918212890624,2.4007608890533447,0.19693200290203094,3.9576408863067627
1742643396862812700,10.744812744140624,2.2313809394836426,0.20477600395679474,3.527690887451172
1742643396878706400,10.76070654296875,2.014228105545044,0.15770800411701202,3.0662710666656494
1742643396894600000,10.776599853515625,2.014228105545044,0.15770800411701202,3.0662710666656494
1742643396910493000,10.792492919921875,1.6426429748535156,-0.07955600321292877,2.9719419479370117
1742643396926385000,10.808385009765624,1.3368229866027832,-0.1534619927406311,2.6750149726867676
1742643396942275800,10.82427587890625,0.7728300094604492,-0.3096739947795868,2.1239840984344482
1742643396958166500,10.84016650390625,0.14545899629592896,-0.28933998942375183,1.5138410329818726
1742643396982003700,10.864003662109376,-0.5681430101394653,-0.010975000448524952,0.6850259900093079
1742643396997897200,10.879897216796875,-0.6305239796638489,0.5514559745788574,0.04564499855041504
1742643397013788700,10.89578857421875,-0.6305239796638489,0.5514559745788574,0.04564499855041504
1742643397029679600,10.9116796875,-0.25939100980758667,0.5248720049858093,-1.0063450336456299
1742643397045571600,10.927571533203125,-0.26057401299476624,0.7730960249900818,-2.1244208812713623
1742643397061462800,10.943462890625,-0.20180800557136536,0.8500170111656189,-3.7937350273132324
1742643397077355800,10.959355712890625,-0.41114598512649536,0.770484983921051,-4.505250930786133
1742643397093249300,10.975249267578125,-0.794189989566803,0.5212219953536987,-4.682064056396484
1742643397109141500,10.9911416015625,-0.794189989566803,0.5212219953536987,-4.682064056396484
1742643397125034500,11.007034423828125,-1.1625909805297852,0.13190099596977234,-4.72040319442749
1742643397140928300,11.02292822265625,-1.6821279525756836,-0.06974200159311295,-4.579448223114014
1742643397156821800,11.03882177734375,-1.7179089784622192,-0.14848899841308594,-4.317072868347168
1742643397172715500,11.054715576171875,-1.7179089784622192,-0.14848899841308594,-4.317072868347168
1742643397188609300,11.070609375,-1.53459894657135,-0.04934199899435043,-4.346261024475098
1742643397204503800,11.08650390625,-1.451503038406372,0.05123699828982353,-4.236248970031738
1742643397220400400,11.102400390625,-1.4476219415664673,0.03276899829506874,-4.0889458656311035
1742643397236292900,11.11829296875,-1.296059012413025,0.10266999900341034,-3.814181089401245
1742643397252186400,11.134186279296875,-1.296059012413025,0.10266999900341034,-3.814181089401245
1742643397268078800,11.150078857421875,-1.2917050123214722,0.07140599936246872,-3.3203349113464355
1742643397283970600,11.165970458984376,-1.1766350269317627,0.0335020013153553,-2.9920969009399414
1742643397299862300,11.1818623046875,-0.7897310256958008,-0.011725000105798244,-2.9607009887695312
1742643397315754500,11.19775439453125,-0.5942000150680542,-0.16171300411224365,-2.822521924972534
1742643397331646200,11.213646240234375,-0.5942000150680542,-0.16171300411224365,-2.822521924972534
1742643397347538400,11.229538330078125,-0.2892970144748688,-0.32210299372673035,-2.498002052307129
1742643397371376400,11.25337646484375,-0.2140679955482483,-0.4522480070590973,-2.1786630153656006
1742643397387269000,11.26926904296875,-0.9797469973564148,-0.7560200095176697,-1.9456690549850464
1742643397403160300,11.285160400390625,-1.8899589776992798,-0.553026020526886,-1.865270972251892
1742643397419052000,11.301052001953124,-2.0308549404144287,-0.49753400683403015,-1.759397029876709
1742643397434945800,11.31694580078125,-1.278918981552124,-0.5754240155220032,-1.4234989881515503
1742643397450838500,11.332838623046875,-1.278918981552124,-0.5754240155220032,-1.4234989881515503
1742643397466731800,11.348731689453125,-0.17815999686717987,-0.6357359886169434,-1.1842130422592163
1742643397482626000,11.3646259765625,0.34604600071907043,-0.8266850113868713,-1.2719759941101074
1742643397498520300,11.380520263671874,0.49862900376319885,-1.0923800468444824,-0.7869259715080261
1742643397514414300,11.396414306640626,0.29372599720954895,-1.241595983505249,-0.5317260026931763
1742643397530309000,11.41230908203125,0.29372599720954895,-1.241595983505249,-0.5317260026931763
1742643397546203400,11.428203369140626,-0.49981099367141724,-1.3558349609375,-0.35571199655532837
1742643397562095600,11.444095703125,-0.6013110280036926,-1.4758440256118774,-0.44822001457214355
1742643397577987600,11.459987548828124,-0.16042199730873108,-1.7507669925689697,-0.604112982749939
1742643397593879600,11.475879638671875,0.40063101053237915,-2.1249189376831055,-0.7140129804611206
1742643397609770800,11.491770751953124,0.40063101053237915,-2.1249189376831055,-0.7140129804611206
1742643397625664500,11.50766455078125,0.7820190191268921,-2.936337947845459,-0.5732759833335876
1742643397641557500,11.5235576171875,0.4378010034561157,-3.5115959644317627,0.04415399953722954
1742643397657450000,11.539449951171875,0.9317010045051575,-3.4230480194091797,0.13858899474143982
1742643397673343000,11.555343017578124,0.9576650261878967,-3.0182669162750244,0.2771179974079132
1742643397689237200,11.5712373046875,0.9576650261878967,-3.0182669162750244,0.2771179974079132
1742643397705129700,11.587129638671875,1.3482940196990967,-2.74809193611145,0.031720999628305435
1742643397721022200,11.603022216796875,1.5579890012741089,-2.5942060947418213,-0.03943600133061409
1742643397736915500,11.61891552734375,1.6951379776000977,-2.664702892303467,0.0216630008071661
1742643397752808700,11.63480859375,1.6951379776000977,-2.664702892303467,0.0216630008071661
1742643397768701200,11.650701171875,1.7458499670028687,-2.4698328971862793,0.10659199953079224
1742643397784593400,11.666593505859375,1.437432050704956,-2.2415928840637207,0.1885879933834076
1742643397800485600,11.682485595703126,1.8048189878463745,-1.8987629413604736,-0.18064400553703308
1742643397816377900,11.6983779296875,1.9902939796447754,-1.7574900388717651,-0.36009499430656433
1742643397832270800,11.714270751953125,1.9902939796447754,-1.7574900388717651,-0.36009499430656433
1742643397848163300,11.730163330078126,2.60738205909729,-1.6848139762878418,-0.404433012008667
1742643397864055000,11.746054931640625,2.8536980152130127,-1.2629599571228027,-0.2868399918079376
1742643397879945500,11.761945556640624,2.3634140491485596,-0.524474024772644,0.06110699847340584
1742643397895836200,11.777836181640625,2.1598238945007324,0.10482899844646454,0.3262709975242615
1742643397911726800,11.793726806640626,2.1598238945007324,0.10482899844646454,0.3262709975242615
1742643397927618300,11.809618408203125,-0.6142789721488953,0.5777940154075623,1.0684599876403809
1742643397943507200,11.825507080078125,-2.5631909370422363,0.6526179909706116,1.5192879438400269
1742643397959397400,11.8413974609375,-3.106566905975342,0.2925719916820526,1.7438470125198364
1742643397975291100,11.857291015625,-1.8829900026321411,0.3363629877567291,1.9942129850387573
1742643397991181600,11.873181640625,-1.8829900026321411,0.3363629877567291,1.9942129850387573
1742643398007073300,11.8890732421875,-1.3633660078048706,0.44781601428985596,2.3750619888305664
1742643398022964700,11.90496484375,-0.9642660021781921,-0.2109919935464859,2.643282890319824
1742643398038856200,11.920856201171874,-0.8885589838027954,-0.30395999550819397,3.044682025909424
1742643398054748000,11.936747802734375,-0.8885589838027954,-0.30395999550819397,3.044682025909424
1742643398070640600,11.952640625,-1.4110820293426514,-0.546688973903656,3.190764904022217
1742643398086532000,11.968531982421876,-0.612883985042572,-0.648760974407196,3.4431049823760986
1742643398102423300,11.98442333984375,0.7563499808311462,-0.22492200136184692,2.98103404045105
1742643398118315500,12.0003154296875,0.20364199578762054,0.07319699972867966,2.625525951385498
1742643398134207500,12.01620751953125,-1.889402985572815,-0.4906579852104187,2.349958896636963
1742643398150100000,12.032099853515625,-1.889402985572815,-0.4906579852104187,2.349958896636963
1742643398165992200,12.0479921875,-4.8257670402526855,0.08744200319051743,0.7529680132865906
1742643398181883100,12.063883056640625,-2.617237091064453,0.5177450180053711,4.436690807342529
1742643398197774600,12.079774658203124,-5.9425249099731445,2.300105094909668,8.705432891845703
1742643398213669000,12.095669189453124,-11.676900863647461,2.057813882827759,21.887845993041992
1742643398229564200,12.111564208984374,-11.676900863647461,2.057813882827759,21.887845993041992
1742643398245455000,12.127455078125,-8.596892356872559,13.103930473327637,-13.481541633605957
1742643398269294600,12.151294677734375,7.039015769958496,20.541175842285156,-41.992530822753906
1742643398285186800,12.167186767578125,24.584720611572266,21.098270416259766,-41.57772445678711
1742643398301080600,12.18308056640625,35.18238067626953,30.353273391723633,-40.82665252685547
1742643398316971800,12.1989716796875,28.767498016357422,31.68113136291504,-23.505250930786133
1742643398332860200,12.214860107421876,28.767498016357422,31.68113136291504,-23.505250930786133
1742643398348747800,12.230747802734374,-12.665419578552246,23.898239135742188,22.49659538269043
1742643398364640500,12.246640625,-29.932302474975586,11.76831340789795,39.5001335144043
1742643398380532200,12.2625322265625,-30.065092086791992,1.1243319511413574,39.595542907714844
1742643398396428000,12.278427978515625,-30.053043365478516,-9.864357948303223,39.46708679199219
1742643398412321800,12.29432177734375,-30.053043365478516,-9.864357948303223,39.46708679199219
1742643398428212200,12.310212158203125,-17.047992706298828,9.927411079406738,39.217689514160156
1742643398444105200,12.326105224609375,-7.550998210906982,29.23527717590332,38.92752456665039
1742643398459996700,12.34199658203125,-10.612131118774414,34.884037017822266,-28.62364387512207
1742643398475890700,12.357890625,17.161985397338867,34.332889556884766,-39.27275466918945
1742643398491783400,12.373783447265625,17.161985397338867,34.332889556884766,-39.27275466918945
1742643398507673600,12.389673583984376,47.01585388183594,33.62929916381836,-39.24281311035156
1742643398523565800,12.40556591796875,46.5905647277832,25.517427444458008,-39.11117935180664
1742643398539456300,12.421456298828126,17.57908821105957,29.532751083374023,-39.04131317138672
1742643398555343000,12.437343017578126,-32.03950500488281,32.35124969482422,-23.355316162109375
1742643398571232500,12.453232421875,-32.03950500488281,32.35124969482422,-23.355316162109375
1742643398587129300,12.46912939453125,-32.724369049072266,27.869943618774414,39.28438186645508
1742643398603021600,12.485021484375,-21.085033416748047,18.801088333129883,39.223995208740234
1742643398618913300,12.500913330078125,17.52979850769043,4.009138107299805,39.18151092529297
1742643398634808600,12.51680859375,17.52979850769043,4.009138107299805,39.18151092529297
1742643398650700500,12.532700439453125,9.41623592376709,6.114613056182861,38.739723205566406
1742643398666595000,12.548594970703125,2.087114095687866,2.7687649726867676,16.377103805541992
1742643398682489000,12.564489013671874,-8.300654411315918,-3.160284996032715,-8.14345645904541
1742643398698382800,12.5803828125,-9.445952415466309,-7.295198917388916,-19.232954025268555
1742643398714274600,12.596274658203125,-9.445952415466309,-7.295198917388916,-19.232954025268555
1742643398730167800,12.612167724609375,-3.682157039642334,-10.435077667236328,-30.153127670288086
1742643398746059500,12.6280595703125,-0.2576630115509033,-10.28709602355957,-28.712095260620117
1742643398761951000,12.643950927734375,-0.9601820111274719,-11.129858016967773,-23.95241928100586
1742643398777841700,12.659841552734376,-8.8992280960083,-10.993353843688965,-14.40660572052002
1742643398793733400,12.6757333984375,-8.8992280960083,-10.993353843688965,-14.40660572052002
1742643398809620500,12.691620361328125,-11.802716255187988,-8.304805755615234,-1.963441014289856
1742643398825511400,12.707511474609374,-8.461504936218262,-8.862829208374023,5.4842047691345215
1742643398841403100,12.723403076171875,-1.6168620586395264,-11.750308990478516,8.203041076660156
1742643398857293000,12.73929296875,0.7749130129814148,-11.277820587158203,5.138661861419678
1742643398873184800,12.755184814453125,0.7749130129814148,-11.277820587158203,5.138661861419678
1742643398889075000,12.771074951171874,0.3866479992866516,-9.296375274658203,-0.4640209972858429
1742643398904966000,12.7869658203125,-0.7956479787826538,-7.9476799964904785,-1.1058369874954224
1742643398920855600,12.80285546875,-2.0229299068450928,-7.76910400390625,1.8568370342254639
1742643398936746500,12.81874658203125,-1.9784489870071411,-7.665742874145508,4.312197208404541
1742643398952636400,12.834636474609376,-1.9784489870071411,-7.665742874145508,4.312197208404541
1742643398968527000,12.850527099609375,-0.2822969853878021,-6.641417980194092,5.037416934967041
1742643398984418800,12.866418701171876,0.3443169891834259,-6.382602214813232,4.572572231292725
1742643399000310000,12.88231005859375,-0.7810959815979004,-5.922011852264404,3.410043954849243
1742643399016203000,12.898203125,-2.4530649185180664,-4.637977123260498,2.608139991760254
1742643399032094000,12.914093994140625,-2.4530649185180664,-4.637977123260498,2.608139991760254
1742643399047986000,12.92998583984375,-0.9674339890480042,-5.403054237365723,1.1992069482803345
1742643399063877600,12.945877685546876,-0.3809109926223755,-4.057504177093506,0.6199269890785217
1742643399079771000,12.96177099609375,-0.6789069771766663,-3.1157209873199463,0.4634470045566559
1742643399095665200,12.9776650390625,1.120360016822815,-3.504879951477051,0.9619709849357605
1742643399111558000,12.993557861328124,1.120360016822815,-3.504879951477051,0.9619709849357605
1742643399127450600,13.00945068359375,2.1492700576782227,-2.9336440563201904,0.8757849931716919
1742643399143341600,13.025341552734375,0.7649580240249634,-2.612293004989624,0.6495980024337769
1742643399159235800,13.04123583984375,0.2284660041332245,-2.8639299869537354,1.8886250257492065
1742643399175129900,13.0571298828125,-0.07286400347948074,-2.6916730403900146,2.592241048812866
1742643399191022000,13.07302197265625,-0.07286400347948074,-2.6916730403900146,2.592241048812866
1742643399206914000,13.0889140625,-0.06845899671316147,-2.4207849502563477,3.0992279052734375
1742643399222805500,13.104805419921876,-0.7497469782829285,-2.036323070526123,2.692383050918579
1742643399238697500,13.120697509765625,-0.985135018825531,-1.7968930006027222,1.3609060049057007
1742643399254590000,13.13658984375,-1.0866739749908447,-2.3515560626983643,1.8658080101013184
1742643399270482400,13.152482421875,-1.0866739749908447,-2.3515560626983643,1.8658080101013184
1742643399286374700,13.168374755859375,-0.6585140228271484,-2.144819974899292,1.8739140033721924
1742643399302264600,13.1842646484375,0.0002469999890308827,-1.5819480419158936,2.617854118347168
1742643399318156300,13.20015625,0.05799100175499916,-1.0513859987258911,2.705972909927368
1742643399334047700,13.2160478515625,0.40026599168777466,-1.1169439554214478,2.401789903640747
1742643399349939500,13.231939453125,0.40026599168777466,-1.1169439554214478,2.401789903640747
1742643399365831400,13.24783154296875,0.5502390265464783,-1.3835959434509277,2.5510520935058594
1742643399389668600,13.271668701171874,-0.2686710059642792,-1.1015759706497192,2.133681058883667
1742643399405559300,13.287559326171875,-1.797245979309082,-0.8046140074729919,2.070543050765991
1742643399421450500,13.303450439453124,-2.890652894973755,-0.22118599712848663,1.6901910305023193
1742643399437342000,13.319342041015625,-2.0350708961486816,0.9442970156669617,0.3763110041618347
1742643399453236200,13.335236328125,0.34736499190330505,1.5800689458847046,-0.7806320190429688
1742643399469129200,13.351129150390625,0.34736499190330505,1.5800689458847046,-0.7806320190429688
1742643399485021200,13.367021240234376,0.8020750284194946,2.498368978500366,-1.4798610210418701
1742643399500913400,13.382913330078125,-0.5167850255966187,2.472409963607788,-1.6598069667816162
1742643399516803600,13.398803466796876,-0.235958993434906,2.407505989074707,-1.548130989074707
1742643399532692000,13.41469189453125,-0.235958993434906,2.407505989074707,-1.548130989074707
1742643399548583200,13.430583251953125,-0.8392919898033142,1.4804680347442627,-1.2476660013198853
1742643399564474400,13.446474365234375,0.9710590243339539,1.8372279405593872,-1.6497759819030762
1742643399580365600,13.462365478515625,2.118614912033081,1.2373470067977905,-1.2053120136260986
1742643399596256300,13.47825634765625,1.6306860446929932,-1.0890740156173706,1.0829789638519287
1742643399612146700,13.494146728515625,1.6306860446929932,-1.0890740156173706,1.0829789638519287
1742643399628038000,13.510037841796875,2.529181957244873,-2.09749698638916,3.6379690170288086
1742643399643929600,13.5259296875,2.6067049503326416,-0.7510240077972412,3.1346309185028076
1742643399659821300,13.5418212890625,0.09495099633932114,0.1214350014925003,2.0892229080200195
1742643399675712500,13.55771240234375,-1.3690890073776245,0.7398819923400879,1.3296400308609009
1742643399691605200,13.573605224609375,-1.3690890073776245,0.7398819923400879,1.3296400308609009
1742643399707497500,13.58949755859375,-2.5625040531158447,-1.6706459522247314,1.396373987197876
1742643399723390700,13.605390625,-4.415218830108643,0.6818069815635681,0.0029349999967962503
1742643399739282200,13.6212822265625,-3.2868549823760986,1.9300700426101685,1.8554739952087402
1742643399755170800,13.6371708984375,0.2644689977169037,1.9549109935760498,1.9299529790878296
1742643399771061000,13.65306103515625,0.2644689977169037,1.9549109935760498,1.9299529790878296
1742643399786952700,13.66895263671875,1.2376060485839844,-0.6250020265579224,2.406238079071045
1742643399802842600,13.684842529296875,0.9822149872779846,1.634626030921936,-0.30196499824523926
1742643399818732800,13.70073291015625,-0.5425710082054138,0.8739070296287537,0.5630000233650208
1742643399834623500,13.71662353515625,-0.5425710082054138,0.8739070296287537,0.5630000233650208
1742643399850515000,13.732514892578125,-2.9239931106567383,0.48427900671958923,0.25391700863838196
1742643399866408000,13.748407958984375,-4.032039165496826,0.1725510060787201,1.3735020160675049
1742643399882300700,13.76430078125,-2.832995891571045,1.5293389558792114,0.2284799963235855
1742643399898192600,13.780192626953125,0.80628901720047,2.768364906311035,-1.4626679420471191
1742643399914086000,13.7960859375,0.80628901720047,2.768364906311035,-1.4626679420471191
1742643399929977600,13.8119775390625,-0.8930720090866089,2.48173189163208,-0.7758989930152893
1742643399945869800,13.827869873046875,4.2373151779174805,-1.0439929962158203,-2.4741649627685547
1742643399961763000,13.84376318359375,5.742547988891602,-1.1828420162200928,-1.9726990461349487
1742643399977654800,13.85965478515625,5.613639831542969,-2.4799420833587646,-2.365900993347168
1742643399993545200,13.875545166015625,3.1284890174865723,-2.8912858963012695,-1.4897350072860718
1742643400009436200,13.891436279296874,3.1284890174865723,-2.8912858963012695,-1.4897350072860718
1742643400025328400,13.907328369140625,-1.7545980215072632,-3.4844980239868164,0.43893998861312866
1742643400041218800,13.92321875,-2.267899990081787,-1.8393739461898804,-0.056919001042842865
1742643400057110300,13.9391103515625,-0.358366996049881,-1.422569990158081,-0.8237329721450806
1742643400073001500,13.95500146484375,-0.358366996049881,-1.422569990158081,-0.8237329721450806
1742643400088893200,13.97089306640625,-0.4524109959602356,-1.8273619413375854,-2.0369739532470703
1742643400104786400,13.986786376953125,1.7142369747161865,-2.1231789588928223,-2.256643056869507
1742643400120679000,14.002678955078125,-1.5430409908294678,-1.271643042564392,-2.6055688858032227
1742643400136570600,14.018570556640626,-0.8969860076904297,-1.3862420320510864,-3.0507431030273438
1742643400152464000,14.0344638671875,-0.8969860076904297,-1.3862420320510864,-3.0507431030273438
1742643400168357000,14.050357177734375,0.17656800150871277,-1.509924054145813,-2.515639066696167
1742643400184249300,14.066249267578126,0.5242030024528503,-1.5475399494171143,-2.4432830810546875
1742643400200143600,14.0821435546875,0.6517210006713867,-1.8974050283432007,-2.363900899887085
1742643400216036900,14.098036865234375,1.3384779691696167,-1.7245999574661255,-3.723906993865967
1742643400239877600,14.121877685546876,1.7941559553146362,-1.0928599834442139,-3.9201300144195557
1742643400255770400,14.137770263671875,2.2083609104156494,-1.0059800148010254,-3.298130989074707
1742643400271663000,14.1536630859375,2.2083609104156494,-1.0059800148010254,-3.298130989074707
1742643400287555600,14.1695556640625,2.8333709239959717,-1.4953579902648926,-0.9514279961585999
1742643400303448800,14.18544873046875,2.9322640895843506,-1.8088020086288452,-1.351151943206787
1742643400319341800,14.201341796875,1.8021240234375,-0.9836869835853577,-2.3069729804992676
1742643400335234600,14.217234619140624,0.2895129919052124,-0.4139229953289032,-1.2717560529708862
1742643400351128300,14.23312841796875,0.2895129919052124,-0.4139229953289032,-1.2717560529708862
1742643400367022600,14.249022705078126,-1.2512969970703125,0.4597780108451843,-2.1091818809509277
1742643400382917600,14.264917724609376,-2.411220073699951,0.45223701000213623,-2.611398935317993
1742643400398810600,14.280810546875,-3.8009068965911865,0.37390801310539246,-3.1441400051116943
1742643400414704000,14.2967041015625,-6.092436790466309,0.15927599370479584,-2.78570294380188
1742643400430598000,14.312597900390625,-6.092436790466309,0.15927599370479584,-2.78570294380188
1742643400446490000,14.328489990234376,-10.785877227783203,-1.2905889749526978,-2.6551380157470703
1742643400462384000,14.344384033203125,-12.303398132324219,-2.8899741172790527,-7.878265857696533
1742643400478277600,14.360277587890625,-13.520362854003906,-6.323146820068359,-17.431184768676758
1742643400494170600,14.376170654296875,-13.520362854003906,-6.323146820068359,-17.431184768676758
1742643400510064400,14.392064453125,-12.789321899414062,-6.606112003326416,-18.89852523803711
1742643400525958700,14.407958740234376,-8.556303977966309,-2.965610980987549,-19.04508399963379
1742643400541853000,14.42385302734375,0.5182819962501526,6.883707046508789,-17.269453048706055
1742643400557743400,14.439743408203125,33.66759490966797,34.846710205078125,12.900750160217285
1742643400573638000,14.455637939453124,33.66759490966797,34.846710205078125,12.900750160217285
1742643400589531600,14.47153173828125,47.74884033203125,40.31502151489258,42.15534210205078
1742643400605427000,14.487427001953124,47.03295135498047,40.03079605102539,42.47663116455078
1742643400621318000,14.50331787109375,21.459749221801758,39.94225311279297,36.76958084106445
1742643400637212000,14.5192119140625,-6.110777854919434,25.98136329650879,-10.637052536010742
1742643400653101600,14.5351015625,-6.110777854919434,25.98136329650879,-10.637052536010742
1742643400668994600,14.55099462890625,-20.054153442382812,-32.49211883544922,-40.92445373535156
1742643400684889300,14.566889404296875,-29.7246036529541,-39.003055572509766,-39.721439361572266
1742643400700782300,14.5827822265625,-29.850006103515625,-26.556259155273438,-35.35553741455078
1742643400716679200,14.59867919921875,-26.49798583984375,-1.2924350500106812,-28.032621383666992
1742643400732574000,14.614573974609375,-26.49798583984375,-1.2924350500106812,-28.032621383666992
1742643400748464600,14.630464599609375,27.720626831054688,38.62577438354492,2.495382070541382
1742643400764356400,14.6463564453125,47.193267822265625,39.65878677368164,39.54434585571289
1742643400788196000,14.670196044921875,45.89442443847656,38.794010162353516,45.559913635253906
1742643400804093700,14.68609375,16.148759841918945,37.57792282104492,46.721134185791016
1742643400819990800,14.70199072265625,6.89551305770874,31.720563888549805,16.912904739379883
1742643400835884300,14.71788427734375,7.729898929595947,-3.368709087371826,-29.72132682800293
1742643400859721500,14.741721435546875,-12.851149559020996,-42.96621322631836,-31.215734481811523
1742643400875616500,14.757616455078125,-35.75688171386719,-41.03669357299805,-31.190523147583008
1742643400891509200,14.77350927734375,-35.75688171386719,-41.03669357299805,-31.190523147583008
1742643400907406600,14.789406494140625,-35.52642822265625,-14.859387397766113,-18.710018157958984
1742643400923298000,14.805298095703124,-28.43036651611328,16.660568237304688,-12.630364418029785
1742643400939189000,14.82118896484375,42.237186431884766,34.6873664855957,43.89331817626953
1742643400955082800,14.837082763671875,41.165260314941406,33.803611755371094,46.666934967041016
1742643400970976000,14.85297607421875,41.165260314941406,33.803611755371094,46.666934967041016
1742643400986870300,14.868870361328124,23.309722900390625,32.86394500732422,46.287784576416016
1742643401002765000,14.88476513671875,-16.508512496948242,27.603639602661133,-8.593619346618652
1742643401026603800,14.908603759765626,-5.422028064727783,-11.909524917602539,-32.94172668457031
1742643401042495500,14.92449560546875,-38.223289489746094,-43.328147888183594,-32.84345245361328
1742643401058389800,14.9403896484375,-37.79184341430664,-33.266563415527344,-26.67990493774414
1742643401074288000,14.9562880859375,-37.79184341430664,-33.266563415527344,-26.67990493774414
1742643401090181600,14.972181640625,-22.618370056152344,-4.867726802825928,1.4238369464874268
1742643401106076400,14.988076416015625,16.407428741455078,3.8915839195251465,16.057661056518555
1742643401121969400,15.003969482421875,30.4528751373291,1.048930048942566,31.797534942626953
1742643401137861600,15.019861572265626,25.687604904174805,1.5301669836044312,30.24349021911621
1742643401153751600,15.03575146484375,25.687604904174805,1.5301669836044312,30.24349021911621
1742643401169645600,15.0516455078125,-3.600883960723877,0.8632609844207764,16.712369918823242
1742643401185536800,15.067536865234375,-12.852768898010254,-3.7130489349365234,0.9953240156173706
1742643401201428700,15.0834287109375,-7.922029972076416,-15.882881164550781,-5.888160228729248
1742643401217320400,15.099320556640626,-7.080216884613037,-26.882183074951172,-13.465806007385254
1742643401233212700,15.115212646484375,-7.080216884613037,-26.882183074951172,-13.465806007385254
1742643401249104600,15.131104736328124,-1.4015909433364868,-24.226694107055664,0.01706700026988983
1742643401264996900,15.146996826171875,-7.320130825042725,-16.557100296020508,-3.6298789978027344
1742643401280888800,15.162888916015625,-6.53352689743042,-9.687588691711426,-6.109766006469727
1742643401296780300,15.1787802734375,-4.402952194213867,-7.193594932556152,-4.91359281539917
1742643401312674000,15.194674072265625,-1.6436150074005127,-5.288444995880127,1.3320649862289429
1742643401328565000,15.21056494140625,-1.6436150074005127,-5.288444995880127,1.3320649862289429
1742643401344454700,15.22645458984375,-0.49017098546028137,-4.254856109619141,8.678322792053223
1742643401360346600,15.2423466796875,-0.3617590069770813,-3.7445790767669678,10.527593612670898
1742643401376239000,15.258239013671876,0.9035930037498474,-4.130259037017822,9.151058197021484
1742643401392130300,15.27413037109375,0.9035930037498474,-4.130259037017822,9.151058197021484
1742643401408022500,15.2900224609375,-0.5419120192527771,-5.892910003662109,-11.829546928405762
1742643401423913000,15.305912841796875,-2.2582790851593018,-7.270382881164551,-1.1279109716415405
1742643401439805200,15.32180517578125,-6.9569621086120605,-6.246524810791016,0.3085170090198517
1742643401455697700,15.33769775390625,-4.83778715133667,-3.769258975982666,0.4062420129776001
1742643401471589000,15.353589111328125,-4.83778715133667,-3.769258975982666,0.4062420129776001
1742643401487481600,15.369481689453124,-1.5072239637374878,-2.7231390476226807,1.503000020980835
1742643401503376000,15.3853759765625,-0.7579410076141357,-1.5336730480194092,3.0179998874664307
1742643401519268000,15.40126806640625,1.3053369522094727,-1.152730941772461,3.586293935775757
1742643401535160600,15.41716064453125,3.3726210594177246,-0.9403319954872131,4.087710857391357
1742643401551053800,15.4330537109375,3.3726210594177246,-0.9403319954872131,4.087710857391357
1742643401566946600,15.448946533203125,3.8401830196380615,-1.2438939809799194,4.106152057647705
1742643401582839000,15.464839111328125,4.065586090087891,-1.3490790128707886,3.7250540256500244
1742643401598732800,15.48073291015625,9.799461364746094,-2.24387788772583,5.93753719329834
1742643401614625500,15.49662548828125,9.799461364746094,-2.24387788772583,5.93753719329834
1742643401630517500,15.512517578125,3.044387102127075,-1.3517539501190186,0.26003798842430115
1742643401646410000,15.528409912109375,3.664062023162842,-2.043384075164795,1.1406060457229614
1742643401662303700,15.5443037109375,1.7153680324554443,-1.8579599857330322,-0.06834500283002853
1742643401678196000,15.560196044921875,1.920475959777832,-2.136993885040283,-1.3424079418182373
1742643401694089700,15.57608984375,1.920475959777832,-2.136993885040283,-1.3424079418182373
1742643401709983000,15.59198291015625,1.3410589694976807,-1.879565954208374,-2.227205991744995
1742643401725874400,15.60787451171875,0.6981289982795715,-1.5394829511642456,-3.0758659839630127
1742643401741767200,15.62376708984375,0.01976200006902218,-1.7045329809188843,-4.225320816040039
1742643401757659600,15.63965966796875,0.7288900017738342,-1.2283979654312134,-3.9444549083709717
1742643401773551900,15.6555517578125,0.7379050254821777,-0.7225850224494934,-3.633976936340332
1742643401789443600,15.671443603515625,0.7379050254821777,-0.7225850224494934,-3.633976936340332
1742643401805333500,15.68733349609375,-0.24860499799251556,-0.5836660265922546,-4.420266151428223
1742643401821227300,15.703227294921875,-1.612473964691162,-3.4228150844573975,-4.135171890258789
1742643401837121000,15.71912109375,0.3139060139656067,-3.797895908355713,-3.6839818954467773
1742643401853014500,15.7350146484375,0.3139060139656067,-3.797895908355713,-3.6839818954467773
1742643401868908000,15.750907958984374,-0.14353199303150177,-6.216978073120117,-4.685107231140137
1742643401884800300,15.76680029296875,-0.3652670085430145,-9.296801567077637,-8.032526969909668
1742643401900692500,15.7826923828125,0.5031870007514954,-13.071008682250977,-10.559677124023438
1742643401916585700,15.798585693359374,1.856863021850586,-11.15818977355957,-10.082833290100098
1742643401932477200,15.814477294921875,1.856863021850586,-11.15818977355957,-10.082833290100098
1742643401948368600,15.83036865234375,-2.3480749130249023,-2.240959882736206,-6.805315017700195
1742643401964262700,15.8462626953125,-4.333183765411377,4.227275848388672,-1.5436760187149048
1742643401988099800,15.870099853515624,-4.55349588394165,13.8208646774292,3.513788938522339
1742643402003992600,15.88599267578125,6.418078899383545,33.24355697631836,21.820409774780273
1742643402019884300,15.90188427734375,9.974944114685059,42.9188117980957,40.69477081298828
1742643402035777300,15.91777734375,4.00116491317749,41.54111099243164,47.31752395629883
1742643402051668500,15.93366845703125,4.00116491317749,41.54111099243164,47.31752395629883
1742643402067561000,15.94956103515625,-6.691256046295166,29.981290817260742,44.06538009643555
1742643402083453200,15.965453125,-16.19457244873047,15.51398754119873,22.2491455078125
1742643402107288300,15.989288330078125,-21.723020553588867,-26.519777297973633,-30.752695083618164
1742643402123180300,16.00518017578125,-19.489816665649414,-41.874107360839844,-31.004858016967773
1742643402139073800,16.02107373046875,-9.13072681427002,-43.01307678222656,-31.08368492126465
1742643402154965200,16.03696533203125,-11.686070442199707,-25.44780921936035,-28.047365188598633
1742643402170858000,16.05285791015625,-11.686070442199707,-25.44780921936035,-28.047365188598633
1742643402186751700,16.068751708984376,-8.405083656311035,9.798009872436523,16.232189178466797
1742643402202646000,16.08464599609375,6.690321922302246,32.773494720458984,39.75584411621094
1742643402218538200,16.100538330078123,5.178194999694824,31.790170669555664,45.33717346191406
1742643402234430200,16.11643017578125,0.8845229744911194,30.969768524169922,43.906951904296875
1742643402250323500,16.132323486328126,0.8845229744911194,30.969768524169922,43.906951904296875
1742643402266217000,16.148217041015624,-7.363461971282959,19.805252075195312,19.46306037902832
1742643402282106400,16.1641064453125,-26.639450073242188,-44.4749870300293,-19.61475944519043
1742643402297999400,16.179999267578125,-8.630189895629883,-48.24683380126953,-36.40449523925781
1742643402313893400,16.195893310546875,-8.630189895629883,-48.24683380126953,-36.40449523925781
1742643402329790000,16.2117900390625,8.349119186401367,-47.8671760559082,-34.86708450317383
1742643402345685800,16.227685791015624,3.306273937225342,-26.989961624145508,-33.3736686706543
1742643402361577000,16.243576904296877,3.781200885772705,10.024273872375488,16.145915985107422
1742643402377466600,16.259466552734374,2.277353048324585,26.10877799987793,35.5554084777832
1742643402393358000,16.275358154296875,2.277353048324585,26.10877799987793,35.5554084777832
1742643402409250300,16.291250244140624,-2.2504889965057373,30.9014892578125,44.19328689575195
1742643402425141000,16.30714111328125,-4.35205078125,30.320045471191406,42.694801330566406
1742643402441032000,16.323031982421874,-10.857268333435059,-2.6365580558776855,21.397109985351562
1742643402456921900,16.338921875,-16.527442932128906,-44.47425079345703,-27.527076721191406
1742643402472815600,16.354815673828124,-16.527442932128906,-44.47425079345703,-27.527076721191406
1742643402488709400,16.37070947265625,4.268773078918457,-48.42469787597656,-38.33244705200195
1742643402504599600,16.386599609375,8.372065544128418,-47.59995651245117,-36.5142707824707
1742643402520489500,16.402489501953124,-1.4440890550613403,-16.99050521850586,-11.93759822845459
1742643402536379600,16.418379638671876,-2.329988956451416,7.1407928466796875,15.391963958740234
1742643402552271000,16.43427099609375,-2.329988956451416,7.1407928466796875,15.391963958740234
1742643402568161800,16.450161865234374,6.048141002655029,30.71094512939453,41.85843276977539
1742643402584052000,16.466052001953123,4.63151216506958,30.14114761352539,41.26212692260742
1742643402599942000,16.48194189453125,-4.4963507652282715,21.799043655395508,33.47763442993164
1742643402615833000,16.4978330078125,-15.282661437988281,-3.9108169078826904,11.2037992477417
1742643402631722000,16.513721923828125,-15.282661437988281,-3.9108169078826904,11.2037992477417
1742643402647615200,16.529615234375,-14.908020973205566,-48.868568420410156,-38.38203811645508
1742643402663507000,16.5455068359375,0.9983530044555664,-48.60151672363281,-36.4409065246582
1742643402679397400,16.5613974609375,4.9916911125183105,-41.26026153564453,-32.95892333984375
1742643402695286500,16.57728662109375,-1.5164270401000977,-20.432872772216797,-7.941319942474365
1742643402711176400,16.593176513671875,-1.5164270401000977,-20.432872772216797,-7.941319942474365
1742643402727068000,16.60906787109375,-1.7111220359802246,12.675607681274414,27.487701416015625
1742643402742961200,16.624961181640625,0.1496790051460266,25.248079299926758,44.95053482055664
1742643402758853000,16.64085302734375,-6.806665897369385,28.38652992248535,43.766151428222656
1742643402774744300,16.656744384765624,-12.47652530670166,16.492765426635742,38.93008041381836
1742643402790635500,16.672635498046876,-12.47652530670166,16.492765426635742,38.93008041381836
1742643402806525400,16.688525390625,-20.148988723754883,-23.36733627319336,2.130592107772827
1742643402822420500,16.70442041015625,-10.56379222869873,-48.973079681396484,-36.8326416015625
1742643402838311400,16.7203115234375,5.186312198638916,-48.56175994873047,-36.2734489440918
1742643402854205400,16.736205322265626,8.227980613708496,-45.42320251464844,-34.496585845947266
1742643402870098000,16.752097900390623,8.227980613708496,-45.42320251464844,-34.496585845947266
1742643402885991000,16.767990966796877,-0.8412910103797913,-16.300981521606445,-10.965094566345215
1742643402901882000,16.783882080078126,-0.8588569760322571,7.447408199310303,15.733020782470703
1742643402917774000,16.799774169921875,1.6651840209960938,18.548873901367188,25.533588409423828
1742643402933665500,16.81566552734375,1.6651840209960938,18.548873901367188,25.533588409423828
1742643402949556000,16.831555908203125,0.2997089922428131,26.09883689880371,36.89173126220703
1742643402965447400,16.847447509765626,-5.435579776763916,26.20041847229004,35.736785888671875
1742643402981340400,16.86334033203125,-8.61567211151123,12.578145980834961,21.509292602539062
1742643402997235700,16.879235595703125,-5.099109172821045,-12.104402542114258,-0.6066989898681641
1742643403013128000,16.8951279296875,-5.099109172821045,-12.104402542114258,-0.6066989898681641
1742643403029022000,16.91102197265625,2.688246011734009,-48.30156326293945,-35.626983642578125
1742643403044915500,16.92691552734375,16.92220687866211,-47.50318908691406,-34.148231506347656
1742643403060812800,16.942812744140625,17.772363662719727,-43.72438049316406,-33.01169204711914
1742643403076704800,16.958704833984374,5.162450790405273,-22.942598342895508,-23.136554718017578
1742643403092597200,16.97459716796875,5.162450790405273,-22.942598342895508,-23.136554718017578
1742643403108489200,16.9904892578125,-6.016730785369873,8.96273422241211,8.802326202392578
1742643403124380400,17.00638037109375,-3.519373893737793,26.042163848876953,23.788820266723633
1742643403140270800,17.022270751953126,-6.266373157501221,32.31816482543945,45.61565017700195
1742643403156164900,17.038164794921876,-11.028764724731445,31.605854034423828,44.93113327026367
1742643403172061700,17.054061767578126,-11.028764724731445,31.605854034423828,44.93113327026367
1742643403187955200,17.069955078125,-18.945310592651367,30.6487979888916,39.1617546081543
1742643403203845600,17.085845703125,-15.989419937133789,4.649823188781738,7.980137825012207
1742643403219741400,17.101741455078123,-6.589000225067139,-47.27860641479492,-33.85798645019531
1742643403235632000,17.117632080078124,18.557775497436523,-46.481910705566406,-32.89060592651367
1742643403251528000,17.13352783203125,18.557775497436523,-46.481910705566406,-32.89060592651367
1742643403267419100,17.149419189453123,11.79044246673584,-41.82569885253906,-32.14602279663086
1742643403283313700,17.165313720703125,-7.678293228149414,-20.30263328552246,-23.552690505981445
1742643403299205600,17.18120556640625,-6.893568992614746,15.751386642456055,10.332269668579102
1742643403315099000,17.197098876953124,1.5768409967422485,32.35566711425781,29.857128143310547
1742643403330994000,17.212993896484374,1.5768409967422485,32.35566711425781,29.857128143310547
1742643403346884900,17.228884765625,2.465524911880493,31.61501693725586,45.1488037109375
1742643403362782700,17.24478271484375,-8.714411735534668,30.975568771362305,44.31248474121094
1742643403386623500,17.26862353515625,-7.388091087341309,29.870210647583008,22.293682098388672
1742643403402515700,17.284515625,-8.427308082580566,-34.20500946044922,-34.942237854003906
1742643403418411000,17.300410888671873,7.892983913421631,-47.2864875793457,-34.04091262817383
1742643403434303500,17.316303466796874,7.892983913421631,-47.2864875793457,-34.04091262817383
1742643403450199300,17.33219921875,23.248779296875,-46.51025390625,-33.00654983520508
1742643403466091500,17.348091552734374,5.048803806304932,-35.286163330078125,-31.298288345336914
1742643403481984800,17.36398486328125,-6.43392276763916,3.109855890274048,9.137412071228027
1742643403497877500,17.37987744140625,5.549979209899902,26.898807525634766,29.67399787902832
1742643403513771300,17.395771240234374,5.549979209899902,26.898807525634766,29.67399787902832
1742643403529662000,17.411661865234375,7.017086029052734,32.101219177246094,45.64802169799805
1742643403545553700,17.4275537109375,2.644087076187134,31.33174705505371,44.786468505859375
1742643403561446700,17.44344677734375,-2.2654221057891846,21.36514663696289,28.297008514404297
1742643403577337900,17.459337890625,-0.9974719882011414,-18.140962600708008,-10.554916381835938
1742643403593233700,17.475233642578125,-0.9974719882011414,-18.140962600708008,-10.554916381835938
1742643403609127400,17.49112744140625,-0.9935020208358765,-47.45095443725586,-34.12308120727539
1742643403625024800,17.507024658203125,10.181957244873047,-46.6213493347168,-33.01863479614258
1742643403640919600,17.52291943359375,10.610068321228027,-28.219877243041992,-32.11192321777344
1742643403656812300,17.538812255859376,-8.121068954467773,-6.471599102020264,-13.541712760925293
1742643403672704000,17.5547041015625,-8.121068954467773,-6.471599102020264,-13.541712760925293
1742643403688594200,17.57059423828125,1.5595890283584595,31.522571563720703,28.535459518432617
1742643403704487200,17.586487060546876,9.381664276123047,32.37697219848633,46.03190231323242
1742643403720382200,17.60238232421875,3.655738115310669,31.56854820251465,44.71858215332031
1742643403736274000,17.61827392578125,-0.616087019443512,30.913469314575195,28.08387565612793
1742643403752163800,17.634163818359376,-0.616087019443512,30.913469314575195,28.08387565612793
1742643403768053800,17.6500537109375,-12.740909576416016,-10.288114547729492,-19.945682525634766
1742643403783947800,17.66594775390625,-19.937023162841797,-45.79016876220703,-34.107505798339844
1742643403799842600,17.681842529296876,-2.1425559520721436,-46.769718170166016,-33.17416000366211
1742643403815736600,17.697736572265626,11.802387237548828,-34.51299285888672,-32.342247009277344
1742643403831628800,17.71362890625,11.802387237548828,-34.51299285888672,-32.342247009277344
1742643403847520300,17.729520263671876,-9.303165435791016,-10.313945770263672,-15.517399787902832
1742643403863414000,17.7454140625,-5.699347019195557,9.207255363464355,14.87887954711914
1742643403879303000,17.761302978515626,-8.167284965515137,25.147825241088867,45.88645935058594
1742643403895196700,17.77719677734375,2.6659159660339355,31.56458282470703,45.43998336791992
1742643403911092500,17.793092529296874,2.6659159660339355,31.56458282470703,45.43998336791992
1742643403926988000,17.808988037109376,15.523963928222656,31.23531150817871,24.03117561340332
1742643403942882800,17.8248828125,4.219099044799805,21.891542434692383,5.876347064971924
1742643403958775800,17.84077587890625,3.929511070251465,-6.924716949462891,-9.151132583618164
1742643403974669300,17.85666943359375,23.55475425720215,-28.672100067138672,-22.88191795349121
1742643403990558700,17.872558837890626,23.55475425720215,-28.672100067138672,-22.88191795349121
1742643404006452000,17.888451904296875,39.34828567504883,-46.34568786621094,-32.731353759765625
1742643404022347000,17.904346923828125,33.729522705078125,-45.740745544433594,-32.14167022705078
1742643404038236400,17.920236328125,1.014037013053894,-30.545429229736328,-28.64503288269043
1742643404054128400,17.93612841796875,-15.453043937683105,-20.067216873168945,-12.282785415649414
1742643404070023400,17.9520234375,-15.453043937683105,-20.067216873168945,-12.282785415649414
1742643404085917000,17.9679169921875,-23.474355697631836,0.4026719927787781,-7.547961235046387
1742643404101808600,17.98380859375,-23.881025314331055,23.03339195251465,-5.329878807067871
1742643404117701000,17.999701171875,-21.250843048095703,34.32606887817383,30.745677947998047
1742643404133595000,18.015594970703123,-28.07816505432129,34.512664794921875,47.26953887939453
1742643404149488400,18.03148828125,-28.07816505432129,34.512664794921875,47.26953887939453
1742643404165385200,18.04738525390625,2.6581149101257324,34.581607818603516,47.34722137451172
1742643404181282600,18.063282470703125,24.464933395385742,34.50434494018555,42.61918258666992
1742643404197177000,18.079177001953123,19.545869827270508,34.34841537475586,-31.25003433227539
1742643404213067800,18.09506787109375,19.545869827270508,34.34841537475586,-31.25003433227539
1742643404228963000,18.110963134765626,-41.65106964111328,33.49091720581055,-31.470600128173828
1742643404244856000,18.12685595703125,-41.28337860107422,5.884134769439697,-23.494749069213867
1742643404260752600,18.142752685546874,-40.808128356933594,4.756537914276123,-32.24325180053711
1742643404276644600,18.15864453125,-20.23745346069336,3.0968430042266846,-8.137494087219238
1742643404292536800,18.174536865234376,-20.23745346069336,3.0968430042266846,-8.137494087219238
1742643404308426500,18.190426513671873,32.94132995605469,-4.974949836730957,24.050132751464844
1742643404324319700,18.20631982421875,36.22966003417969,-9.234128952026367,23.427446365356445
1742643404340211700,18.222211669921876,12.419303894042969,-9.025405883789062,15.375263214111328
1742643404356103400,18.238103515625,0.30552801489830017,-10.448418617248535,9.80845832824707
1742643404371998200,18.253998291015623,0.30552801489830017,-10.448418617248535,9.80845832824707
1742643404387892500,18.269892578125,-8.302667617797852,-14.15022087097168,-0.854062020778656
1742643404403786800,18.285786865234375,-7.226184844970703,-16.25775718688965,-5.223434925079346
1742643404419679700,18.3016796875,-7.704830169677734,-15.876077651977539,-8.026185035705566
1742643404435571700,18.31757177734375,-14.330103874206543,-13.609170913696289,-7.025136947631836
1742643404451464000,18.3334638671875,-14.330103874206543,-13.609170913696289,-7.025136947631836
1742643404467357000,18.34935693359375,-20.239748001098633,-12.045557022094727,-1.7149690389633179
1742643404491197700,18.37319775390625,-14.167610168457031,-10.581724166870117,-0.9346929788589478
1742643404507092200,18.38909228515625,-3.2145659923553467,-9.28915023803711,-1.6572209596633911
1742643404522986500,18.404986572265624,-0.2762939929962158,-7.597711086273193,-3.0332820415496826
1742643404538881000,18.420881103515626,-0.33401599526405334,-7.123279094696045,-3.718319892883301
1742643404554774300,18.436774169921875,-0.04233499988913536,-6.508471965789795,-1.0917370319366455
1742643404570668300,18.452668212890625,-0.04233499988913536,-6.508471965789795,-1.0917370319366455
1742643404586562000,18.46856201171875,-0.8063700199127197,-6.269445896148682,2.2513720989227295
1742643404602457600,18.48445751953125,-1.1296939849853516,-5.654921054840088,1.6940950155258179
1742643404618353000,18.500352783203127,-0.8993880152702332,-5.481908798217773,1.3578310012817383
1742643404634246000,18.516245849609376,0.12932799756526947,-5.373302936553955,2.5717580318450928
1742643404650138400,18.532138427734374,0.12932799756526947,-5.373302936553955,2.5717580318450928
1742643404666034200,18.5480341796875,0.22767500579357147,-6.06990385055542,4.215900897979736
1742643404681927700,18.563927734375,1.0480149984359741,-5.177937984466553,3.0963048934936523
1742643404697822000,18.579822021484375,1.299381971359253,-5.160737037658691,2.5661449432373047
1742643404713715200,18.595715087890625,1.299381971359253,-5.160737037658691,2.5661449432373047
1742643404729608400,18.6116083984375,0.18170100450515747,-4.661590099334717,2.1114490032196045
1742643404745501200,18.627501220703124,-0.8229910135269165,-4.405537128448486,1.5944119691848755
1742643404761394400,18.64339453125,-1.326496958732605,-3.798306941986084,1.3974930047988892
1742643404777287400,18.659287353515627,-1.4882049560546875,-3.1821789741516113,2.330634117126465
1742643404793180700,18.6751806640625,-1.4882049560546875,-3.1821789741516113,2.330634117126465
1742643404809073700,18.69107373046875,-0.44443199038505554,-2.862032890319824,2.321969985961914
1742643404824967000,18.706966796875,0.18856899440288544,-2.618194103240967,1.803176999092102
1742643404840862500,18.722862548828125,1.0418610572814941,-2.121011972427368,1.7069259881973267
1742643404856757000,18.738757080078123,1.519760012626648,-1.872588038444519,1.808102011680603
1742643404872651500,18.754651611328125,1.519760012626648,-1.872588038444519,1.808102011680603
1742643404888546800,18.770546875,1.6097389459609985,-1.5865700244903564,1.8770979642868042
1742643404904441600,18.786441650390625,0.6711819767951965,-1.182183027267456,1.325692057609558
1742643404920337200,18.802337158203127,-0.8992199897766113,-1.694092035293579,0.07277999818325043
1742643404936232200,18.818232177734377,-1.0970309972763062,-2.3731870651245117,-0.4952920079231262
1742643404952125700,18.834125732421874,-1.0970309972763062,-2.3731870651245117,-0.4952920079231262
1742643404968017200,18.85001708984375,-1.6786079406738281,-3.29850697517395,-1.2231080532073975
1742643404983908600,18.86590869140625,-2.3861329555511475,-3.254055976867676,-1.3829790353775024
1742643404999800800,18.88180078125,-0.9834650158882141,-2.5110840797424316,-0.7551130056381226
1742643405015694600,18.897694580078124,2.4867589473724365,-1.4600789546966553,-1.363440990447998
1742643405031589600,18.913589599609374,2.4867589473724365,-1.4600789546966553,-1.363440990447998
1742643405047484000,18.92948388671875,2.7652649879455566,-0.312624990940094,0.7556570172309875
1742643405063378000,18.9453779296875,1.3701059818267822,0.6209729909896851,2.7535390853881836
1742643405079274500,18.9612744140625,-3.1239259243011475,1.9452019929885864,4.729245185852051
1742643405095172000,18.977172119140626,-5.602297782897949,2.065006971359253,3.1250689029693604
1742643405111069700,18.993069580078124,-5.602297782897949,2.065006971359253,3.1250689029693604
1742643405126964200,19.008964111328126,-5.877224922180176,3.00137996673584,-2.2894160747528076
1742643405142858200,19.024858154296876,-4.19844388961792,2.9972050189971924,-3.0575459003448486
1742643405158752000,19.040751953125,-4.654254913330078,0.6684859991073608,0.4449540078639984
1742643405174643700,19.056643798828127,-3.884752035140991,-0.3792169988155365,-0.5208190083503723
1742643405190538000,19.0725380859375,-3.884752035140991,-0.3792169988155365,-0.5208190083503723
1742643405206432000,19.088431884765626,-2.338613986968994,-0.6716669797897339,-6.076053142547607
1742643405222326500,19.104326416015624,-1.1497629880905151,-1.1176940202713013,-8.396260261535645
1742643405238220000,19.120219970703126,3.2815370559692383,-2.4621129035949707,-7.999524116516113
1742643405254114000,19.136114013671875,7.38480806350708,-2.452033042907715,-7.72598123550415
1742643405270009000,19.152009033203125,7.38480806350708,-2.452033042907715,-7.72598123550415
1742643405285901300,19.1679013671875,9.014938354492188,-2.698378086090088,-6.88507080078125
1742643405301794300,19.183794189453124,8.369032859802246,-1.7035210132598877,-7.651444911956787
1742643405317687600,19.1996875,6.813300132751465,-0.4812139868736267,-13.827969551086426
1742643405333582000,19.21558203125,9.481928825378418,1.0039050579071045,-20.123376846313477
1742643405349476000,19.23147607421875,9.481928825378418,1.0039050579071045,-20.123376846313477
1742643405365369900,19.247369873046875,31.691030502319336,8.231627464294434,-21.345138549804688
1742643405381262800,19.263262939453124,46.69373321533203,18.33053970336914,-7.832892894744873
1742643405397158100,19.279158203125,45.79443359375,37.64853286743164,0.2425300031900406
1742643405413052000,19.295052001953124,45.79443359375,37.64853286743164,0.2425300031900406
1742643405428947000,19.310947021484374,44.678897857666016,42.85435104370117,-32.69276809692383
1742643405444839700,19.326839599609375,9.649191856384277,42.63485336303711,-31.777427673339844
1742643405460732400,19.342732421875,-28.18386459350586,28.149606704711914,-31.09375
1742643405476622800,19.358622802734374,-33.89618682861328,11.16199779510498,-30.61627197265625
1742643405500463400,19.38246337890625,-37.09640121459961,7.064558029174805,-30.298730850219727
1742643405516356000,19.398356201171875,-37.47338104248047,7.411482810974121,-6.55583381652832
1742643405532249300,19.414249267578125,-37.47338104248047,7.411482810974121,-6.55583381652832
1742643405548147200,19.430147216796875,-37.690650939941406,9.344407081604004,10.823143005371094
1742643405564040700,19.446040771484373,11.370295524597168,3.624919891357422,17.325042724609375
1742643405579933400,19.461933349609374,22.964988708496094,-5.967844009399414,5.041097164154053
1742643405595827000,19.477826904296876,8.026860237121582,-6.2671217918396,5.013804912567139
1742643405611719400,19.493719482421874,8.026860237121582,-6.2671217918396,5.013804912567139
1742643405627612000,19.50961181640625,7.8412017822265625,-8.566779136657715,2.464843988418579
1742643405643504400,19.52550439453125,1.9945770502090454,-9.383543968200684,0.831803023815155
1742643405659400200,19.541400146484374,-0.3721350133419037,-8.597167015075684,2.064690113067627
1742643405675294500,19.55729443359375,2.086824893951416,-7.614623069763184,1.3171659708023071
1742643405691188700,19.573188720703126,2.086824893951416,-7.614623069763184,1.3171659708023071
1742643405707083800,19.589083740234376,-1.2421009540557861,-6.145877838134766,2.2422890663146973
1742643405722980000,19.60497998046875,1.2893199920654297,-6.291337966918945,2.0494189262390137
1742643405738876000,19.6208759765625,7.2457990646362305,-6.1946258544921875,1.6706140041351318
1742643405754771200,19.636771240234374,6.440907955169678,-5.452085971832275,2.179969072341919
1742643405770666500,19.65266650390625,6.440907955169678,-5.452085971832275,2.179969072341919
1742643405786561000,19.66856103515625,1.9136979579925537,-4.4586567878723145,2.822812080383301
1742643405802455000,19.684455078125,0.6504600048065186,-3.7974789142608643,2.2145209312438965
1742643405818348800,19.700348876953125,0.8165720105171204,-3.7693979740142822,2.156459093093872
1742643405834244400,19.716244384765623,0.8165720105171204,-3.7693979740142822,2.156459093093872
1742643405850138600,19.732138671875,0.10007599741220474,-3.419574022293091,1.0028610229492188
1742643405866033700,19.74803369140625,-1.0583349466323853,-2.762005090713501,0.7712630033493042
1742643405881929000,19.763928955078125,-3.4936909675598145,-1.8730260133743286,1.3653160333633423
1742643405897824800,19.77982470703125,-3.2705750465393066,-1.2437089681625366,2.7227790355682373
1742643405913718500,19.795718505859377,-1.4645899534225464,-1.0288310050964355,2.842017889022827
1742643405929611500,19.811611572265626,-1.4645899534225464,-1.0288310050964355,2.842017889022827
1742643405945506600,19.827506591796876,0.389710009098053,-1.1853339672088623,1.8363089561462402
1742643405961398300,19.843398193359373,1.1743619441986084,-1.5867209434509277,0.19684599339962006
1742643405977291800,19.859291748046875,-0.3312940001487732,-1.739982008934021,-0.29339900612831116
1742643405993186300,19.875186279296877,-0.3312940001487732,-1.739982008934021,-0.29339900612831116
1742643406009080800,19.891080810546875,-2.28016996383667,-1.6208820343017578,-0.6124169826507568
1742643406024974000,19.90697412109375,-3.2410149574279785,-1.5980099439620972,-1.7539089918136597
1742643406040868000,19.9228681640625,-2.8733530044555664,-2.136354923248291,-1.8419890403747559
1742643406056761900,19.938761962890624,-2.378710985183716,-2.3081700801849365,-1.8301340341567993
1742643406072657000,19.954656982421874,-2.378710985183716,-2.3081700801849365,-1.8301340341567993
1742643406088552700,19.970552734375,-1.9255249500274658,-1.7296370267868042,-1.9909310340881348
1742643406104447000,19.986447021484373,-2.0472700595855713,-2.0995070934295654,-1.2496960163116455
1742643406128287500,20.01028759765625,-1.9881370067596436,-1.6738289594650269,-0.7082740068435669
1742643406144180200,20.02618017578125,-1.5362950563430786,-1.306812047958374,-0.2717140018939972
1742643406160073200,20.0420732421875,-0.5801669955253601,-1.2278929948806763,0.5899800062179565
1742643406175967200,20.05796728515625,0.2456129938364029,-0.9853670001029968,0.8667309880256653
1742643406191861200,20.073861328125,0.2456129938364029,-0.9853670001029968,0.8667309880256653
1742643406207756800,20.0897568359375,0.9729729890823364,-1.041242003440857,0.7340390086174011
1742643406223652400,20.10565234375,1.5862849950790405,-0.9879140257835388,0.5063070058822632
1742643406239547400,20.12154736328125,1.8109359741210938,-0.9493600130081177,0.08970200270414352
1742643406255440100,20.137440185546875,2.3289599418640137,-0.6875079870223999,0.25842300057411194
1742643406271332900,20.153332763671877,2.3289599418640137,-0.6875079870223999,0.25842300057411194
1742643406287226000,20.16922607421875,2.5450010299682617,-0.7612339854240417,0.3764289915561676
1742643406303117600,20.18511767578125,3.2876029014587402,-0.08695299923419952,-0.06980399787425995
1742643406319008300,20.20100830078125,2.901592969894409,0.004013999830931425,0.1820169985294342
1742643406334900700,20.216900634765626,1.7819000482559204,-0.14087699353694916,0.11093299835920334
1742643406350794200,20.232794189453124,1.7819000482559204,-0.14087699353694916,0.11093299835920334
