time,seconds_elapsed,z,y,x
1742643386373970400,0.255970458984375,9.028950691223145,-0.07800000160932541,0.4819500148296356
1742643386397806600,0.279806640625,8.932950019836426,-0.3850500285625458,0.30900001525878906
1742643386413698000,0.295697998046875,9.181950569152832,-0.4039500057697296,0.040950000286102295
1742643386437535000,0.319534912109375,9.736950874328613,-0.364950031042099,-0.13005000352859497
1742643386453425200,0.335425048828125,10.158000946044922,-0.28905001282691956,-0.22605000436306
1742643386469315600,0.351315673828125,10.789950370788574,-0.07800000160932541,-0.5320500135421753
1742643386485204200,0.367204345703125,11.212050437927246,0.361050009727478,-0.820050060749054
1742643386501093600,0.38309375,11.250000953674316,0.6100500226020813,-1.0300500392913818
1742643386516983800,0.39898388671875,10.809000968933105,0.7249500155448914,-1.0300500392913818
1742643386532874800,0.414874755859375,10.02405071258545,0.6490500569343567,-0.7810500264167786
1742643386548765400,0.430765380859375,9.373050689697266,0.41895002126693726,-0.34095001220703125
1742643386564657700,0.44665771484375,9.009000778198242,0.036000002175569534,-0.015000000596046448
1742643386580548000,0.462548095703125,8.989950180053711,-0.21195000410079956,0.040950000286102295
1742643386596438800,0.478438720703125,8.818050384521484,-0.46095001697540283,0.040950000286102295
1742643386612329700,0.494329833984375,8.818050384521484,-0.595050036907196,-0.034050002694129944
1742643386628220700,0.510220703125,9.220050811767578,-0.5380499958992004,-0.13005000352859497
1742643386644112600,0.526112548828125,9.814050674438477,-0.5380499958992004,-0.2070000171661377
1742643386660005400,0.54200537109375,10.4839506149292,-0.25005000829696655,-0.5899500250816345
1742643386675895600,0.5578955078125,11.154000282287598,0.16995000839233398,-0.9919500350952148
1742643386691785000,0.573784912109375,11.61405086517334,0.5910000205039978,-1.297950029373169
1742643386707676000,0.589676025390625,11.269050598144531,0.8209500312805176,-1.144950032234192
1742643386723566800,0.60556689453125,10.177950859069824,0.7249500155448914,-0.5710500478744507
1742643386739457500,0.62145751953125,9.142950057983398,0.534000039100647,-0.07304999977350235
1742643386755349000,0.637348876953125,8.550000190734863,0.20805001258850098,0.25200000405311584
1742643386771244300,0.653244384765625,8.41604995727539,-0.25005000829696655,0.4240500330924988
1742643386787134700,0.669134765625,8.550000190734863,-0.595050036907196,0.4429500102996826
1742643386803024600,0.685024658203125,8.87505054473877,-0.7480500340461731,0.27105000615119934
1742643386818917000,0.700917236328125,9.201000213623047,-0.7480500340461731,-0.015000000596046448
1742643386834809000,0.71680908203125,9.8899507522583,-0.6910500526428223,-0.322050005197525
1742643386850701600,0.73270166015625,10.618050575256348,-0.4420500099658966,-0.5130000114440918
1742643386866591700,0.748591796875,10.885950088500977,0.07395000010728836,-0.609000027179718
1742643386882481700,0.764481689453125,10.809000968933105,0.45705002546310425,-0.7050000429153442
1742643386898372000,0.7803720703125,10.407000541687012,0.5719500184059143,-0.7429500222206116
1742643386914265300,0.796265380859375,10.216050148010254,0.5719500184059143,-0.6469500064849854
1742643386930157800,0.81215771484375,9.985950469970703,0.5530500411987305,-0.5320500135421753
1742643386946049800,0.8280498046875,9.60300064086914,0.4759500324726105,-0.37905001640319824
1742643386961943300,0.843943359375,9.277950286865234,0.2850000262260437,-0.13005000352859497
1742643386977838600,0.859838623046875,9.258000373840332,0.05505000427365303,0.022050000727176666
1742643386993732400,0.875732421875,9.450000762939453,-0.21195000410079956,-0.09195000678300858
1742643387009626400,0.89162646484375,9.640950202941895,-0.364950031042099,-0.39795002341270447
1742643387025518300,0.907518310546875,9.775050163269043,-0.3850500285625458,-0.5320500135421753
1742643387041409500,0.923409423828125,10.044000625610352,-0.3460500240325928,-0.47505003213882446
1742643387057302000,0.939302001953125,10.120050430297852,-0.28905001282691956,-0.41700002551078796
1742643387073193700,0.95519384765625,10.063050270080566,-0.05895000323653221,-0.45600003004074097
1742643387089083600,0.971083740234375,10.005000114440918,0.15105000138282776,-0.47505003213882446
1742643387104975000,0.98697509765625,10.005000114440918,0.361050009727478,-0.5520000457763672
1742643387120865800,1.00286572265625,9.85200023651123,0.361050009727478,-0.4939500093460083
1742643387136756500,1.018756591796875,9.928950309753418,0.2460000067949295,-0.43695002794265747
1742643387152650500,1.034650390625,9.8899507522583,0.09300000220537186,-0.36000001430511475
1742643387168542200,1.050542236328125,9.871050834655762,0.036000002175569534,-0.283050000667572
1742643387184433700,1.06643359375,9.795000076293945,-0.0019500000635161996,-0.22605000436306
1742643387200324900,1.082324951171875,9.699000358581543,-0.04005000367760658,-0.2070000171661377
1742643387216216600,1.098216552734375,9.736950874328613,-0.05895000323653221,-0.24495001137256622
1742643387232106800,1.114106689453125,9.58395004272461,-0.04005000367760658,-0.30300000309944153
1742643387247998200,1.129998291015625,9.546000480651855,-0.05895000323653221,-0.34095001220703125
1742643387263890700,1.145890625,9.756000518798828,-0.05895000323653221,-0.39795002341270447
1742643387279783400,1.161783447265625,9.94800090789795,-0.0019500000635161996,-0.47505003213882446
1742643387295676400,1.177676513671875,9.928950309753418,0.05505000427365303,-0.4939500093460083
1742643387311568100,1.193568115234375,9.679950714111328,0.09300000220537186,-0.39795002341270447
1742643387327459300,1.209459228515625,9.756000518798828,0.036000002175569534,-0.322050005197525
1742643387343350300,1.225350341796875,10.005000114440918,0.016950000077486038,-0.322050005197525
1742643387359239700,1.24123974609375,10.158000946044922,0.036000002175569534,-0.37905001640319824
1742643387375129900,1.2571298828125,10.081950187683105,0.036000002175569534,-0.2639999985694885
1742643387391020000,1.27302001953125,9.967050552368164,0.016950000077486038,-0.11100000888109207
1742643387406909000,1.288908935546875,9.871050834655762,-0.021000001579523087,-0.034050002694129944
1742643387422799000,1.304799072265625,9.756000518798828,0.016950000077486038,-0.07304999977350235
1742643387438692000,1.320692138671875,9.775050163269043,0.016950000077486038,-0.1879500150680542
1742643387454583800,1.336583740234375,9.814050674438477,0.016950000077486038,-0.1879500150680542
1742643387470474500,1.352474609375,9.736950874328613,0.05505000427365303,-0.13005000352859497
1742643387486365400,1.368365478515625,9.736950874328613,0.05505000427365303,-0.13005000352859497
1742643387502256600,1.384256591796875,9.756000518798828,0.05505000427365303,-0.24495001137256622
1742643387518146800,1.400146728515625,9.832950592041016,0.09300000220537186,-0.30300000309944153
1742643387534038500,1.41603857421875,9.871050834655762,0.09300000220537186,-0.36000001430511475
1742643387549930000,1.431929931640625,9.871050834655762,0.05505000427365303,-0.30300000309944153
1742643387565821700,1.44782177734375,9.85200023651123,0.05505000427365303,-0.2639999985694885
1742643387581714200,1.463714111328125,9.8899507522583,0.05505000427365303,-0.283050000667572
1742643387597604000,1.47960400390625,9.832950592041016,0.016950000077486038,-0.322050005197525
1742643387613494300,1.495494384765625,9.756000518798828,-0.0019500000635161996,-0.322050005197525
1742643387629385200,1.51138525390625,9.679950714111328,-0.021000001579523087,-0.2639999985694885
1742643387645277000,1.52727685546875,9.661050796508789,-0.021000001579523087,-0.22605000436306
1742643387661169000,1.5431689453125,9.814050674438477,-0.0019500000635161996,-0.2639999985694885
1742643387677061600,1.5590615234375,9.928950309753418,-0.021000001579523087,-0.24495001137256622
1742643387692952000,1.5749521484375,9.94800090789795,0.036000002175569534,-0.22605000436306
1742643387708843500,1.590843505859375,9.967050552368164,0.036000002175569534,-0.30300000309944153
1742643387724735200,1.6067353515625,9.967050552368164,0.09300000220537186,-0.322050005197525
1742643387740627500,1.62262744140625,10.02405071258545,0.09300000220537186,-0.30300000309944153
1742643387756520000,1.63852001953125,9.832950592041016,0.09300000220537186,-0.22605000436306
1742643387772411100,1.6544111328125,9.795000076293945,0.09300000220537186,-0.22605000436306
1742643387788302300,1.67030224609375,9.756000518798828,0.09300000220537186,-0.24495001137256622
1742643387804193000,1.686193115234375,9.795000076293945,0.05505000427365303,-0.22605000436306
1742643387820084000,1.702083984375,9.8899507522583,0.016950000077486038,-0.24495001137256622
1742643387835975200,1.71797509765625,9.85200023651123,0.036000002175569534,-0.2639999985694885
1742643387851865600,1.733865478515625,9.756000518798828,0.05505000427365303,-0.283050000667572
1742643387867757600,1.749757568359375,9.775050163269043,-0.0019500000635161996,-0.30300000309944153
1742643387883648800,1.765648681640625,9.756000518798828,-0.0019500000635161996,-0.34095001220703125
1742643387899540000,1.7815400390625,9.967050552368164,-0.11595000326633453,-0.2639999985694885
1742643387915430000,1.797429931640625,9.871050834655762,-0.021000001579523087,-0.43695002794265747
1742643387931321000,1.813321044921875,9.795000076293945,0.07395000010728836,-0.39795002341270447
1742643387947212300,1.82921240234375,9.85200023651123,0.036000002175569534,-0.283050000667572
1742643387963103000,1.84510302734375,9.8899507522583,-0.05895000323653221,-0.1879500150680542
1742643387978993000,1.860992919921875,9.985950469970703,-0.04005000367760658,-0.283050000667572
1742643387994884400,1.87688427734375,9.871050834655762,0.036000002175569534,-0.283050000667572
1742643388010774800,1.89277490234375,9.775050163269043,0.07395000010728836,-0.22605000436306
1742643388026666200,1.908666259765625,9.775050163269043,0.016950000077486038,-0.2639999985694885
1742643388042558500,1.924558349609375,9.871050834655762,0.036000002175569534,-0.283050000667572
1742643388058450000,1.940449951171875,9.795000076293945,0.07395000010728836,-0.283050000667572
1742643388074340400,1.95634033203125,9.795000076293945,0.05505000427365303,-0.2639999985694885
1742643388090230500,1.97223046875,9.795000076293945,0.036000002175569534,-0.22605000436306
1742643388106121200,1.988121337890625,9.718050003051758,-0.021000001579523087,-0.1879500150680542
1742643388122012200,2.00401220703125,9.736950874328613,-0.021000001579523087,-0.13005000352859497
1742643388137902300,2.01990234375,9.795000076293945,-0.021000001579523087,-0.16905000805854797
1742643388153793300,2.035793212890625,9.832950592041016,0.016950000077486038,-0.1489500105381012
1742643388169684200,2.051684326171875,9.775050163269043,0.036000002175569534,-0.1489500105381012
1742643388185573600,2.06757373046875,9.832950592041016,0.036000002175569534,-0.1879500150680542
1742643388201465300,2.08346533203125,9.8899507522583,0.036000002175569534,-0.2639999985694885
1742643388225301200,2.10730126953125,10.005000114440918,-0.05895000323653221,-0.2639999985694885
1742643388241192200,2.123192138671875,9.94800090789795,-0.11595000326633453,-0.2070000171661377
1742643388257085400,2.13908544921875,9.814050674438477,-0.19305001199245453,-0.2639999985694885
1742643388272977000,2.154976806640625,9.795000076293945,-0.05895000323653221,-0.283050000667572
1742643388288867000,2.1708671875,9.85200023651123,-0.0019500000635161996,-0.24495001137256622
1742643388304758500,2.186758544921875,9.85200023651123,0.05505000427365303,-0.283050000667572
1742643388320650200,2.202650146484375,9.814050674438477,0.016950000077486038,-0.2639999985694885
1742643388336540400,2.21854052734375,9.871050834655762,-0.04005000367760658,-0.30300000309944153
1742643388352430000,2.23443017578125,9.814050674438477,-0.05895000323653221,-0.36000001430511475
1742643388368322300,2.250322265625,9.736950874328613,-0.0970500037074089,-0.37905001640319824
1742643388384214800,2.26621484375,9.814050674438477,-0.15495000779628754,-0.34095001220703125
1742643388400105500,2.28210546875,9.832950592041016,-0.17400000989437103,-0.2639999985694885
1742643388415996200,2.29799609375,9.775050163269043,-0.17400000989437103,-0.283050000667572
1742643388431888600,2.313888671875,9.85200023651123,-0.07800000160932541,-0.37905001640319824
1742643388447780400,2.3297802734375,10.02405071258545,-0.05895000323653221,-0.41700002551078796
1742643388463671800,2.345671875,10.081950187683105,-0.04005000367760658,-0.36000001430511475
1742643388479563800,2.361563720703125,9.94800090789795,-0.05895000323653221,-0.30300000309944153
1742643388495456300,2.377456298828125,9.871050834655762,-0.07800000160932541,-0.283050000667572
1742643388511348500,2.393348388671875,9.814050674438477,-0.0019500000635161996,-0.2639999985694885
1742643388527239200,2.4092392578125,9.756000518798828,0.036000002175569534,-0.30300000309944153
1742643388543131000,2.425130859375,9.679950714111328,-0.0019500000635161996,-0.322050005197525
1742643388559021000,2.44102099609375,9.718050003051758,-0.04005000367760658,-0.283050000667572
1742643388574910700,2.45691064453125,9.699000358581543,-0.05895000323653221,-0.2639999985694885
1742643388590801200,2.47280126953125,9.871050834655762,-0.07800000160932541,-0.24495001137256622
1742643388606690600,2.488690673828125,10.063050270080566,-0.0970500037074089,-0.30300000309944153
1742643388622579500,2.504579345703125,9.928950309753418,-0.0970500037074089,-0.283050000667572
1742643388638471000,2.520470947265625,9.909000396728516,-0.11595000326633453,-0.283050000667572
1742643388654361300,2.536361328125,9.832950592041016,-0.11595000326633453,-0.283050000667572
1742643388670252000,2.552251953125,9.736950874328613,-0.07800000160932541,-0.322050005197525
1742643388686142700,2.568142822265625,9.661050796508789,-0.04005000367760658,-0.34095001220703125
1742643388702033700,2.58403369140625,9.622050285339355,0.016950000077486038,-0.34095001220703125
1742643388717923300,2.59992333984375,9.699000358581543,0.05505000427365303,-0.34095001220703125
1742643388733814300,2.615814208984375,9.814050674438477,0.07395000010728836,-0.36000001430511475
1742643388749706000,2.6317060546875,9.967050552368164,-0.021000001579523087,-0.283050000667572
1742643388765597700,2.64759765625,9.94800090789795,-0.0970500037074089,-0.36000001430511475
1742643388781489200,2.6634892578125,9.928950309753418,-0.021000001579523087,-0.39795002341270447
1742643388797382000,2.6793818359375,10.005000114440918,-0.0019500000635161996,-0.30300000309944153
1742643388813274000,2.695274169921875,9.909000396728516,0.016950000077486038,-0.283050000667572
1742643388829166000,2.711166015625,9.85200023651123,0.05505000427365303,-0.36000001430511475
1742643388845057300,2.727057373046875,9.909000396728516,0.036000002175569534,-0.36000001430511475
1742643388860947700,2.74294775390625,9.832950592041016,0.016950000077486038,-0.2639999985694885
1742643388876837600,2.758837646484375,9.756000518798828,-0.021000001579523087,-0.283050000667572
1742643388892728000,2.77472802734375,9.756000518798828,-0.0019500000635161996,-0.283050000667572
1742643388908618200,2.7906181640625,9.699000358581543,-0.021000001579523087,-0.30300000309944153
1742643388924508400,2.80650830078125,9.775050163269043,-0.0019500000635161996,-0.283050000667572
1742643388940398800,2.82239892578125,9.775050163269043,-0.0019500000635161996,-0.36000001430511475
1742643388956289000,2.8382890625,9.8899507522583,-0.021000001579523087,-0.322050005197525
1742643388972180000,2.854179931640625,9.8899507522583,-0.021000001579523087,-0.283050000667572
1742643388988070400,2.8700703125,9.775050163269043,-0.04005000367760658,-0.30300000309944153
1742643389003961600,2.885961669921875,9.85200023651123,0.016950000077486038,-0.37905001640319824
1742643389019853300,2.901853271484375,9.928950309753418,0.036000002175569534,-0.36000001430511475
1742643389035745300,2.917745361328125,9.85200023651123,0.036000002175569534,-0.30300000309944153
1742643389051637000,2.933636962890625,9.832950592041016,0.05505000427365303,-0.34095001220703125
1742643389067530200,2.9495302734375,9.814050674438477,0.05505000427365303,-0.322050005197525
1742643389083422200,2.965422119140625,9.756000518798828,0.036000002175569534,-0.322050005197525
1742643389099315500,2.9813154296875,9.832950592041016,0.036000002175569534,-0.322050005197525
1742643389115208700,2.997208740234375,9.85200023651123,0.036000002175569534,-0.34095001220703125
1742643389131100700,3.0131005859375,9.832950592041016,0.016950000077486038,-0.34095001220703125
1742643389146994200,3.028994140625,9.795000076293945,0.036000002175569534,-0.34095001220703125
1742643389162887400,3.044887451171875,9.832950592041016,0.016950000077486038,-0.37905001640319824
1742643389178781400,3.060781494140625,9.795000076293945,0.036000002175569534,-0.34095001220703125
1742643389194673000,3.0766728515625,9.736950874328613,0.016950000077486038,-0.322050005197525
1742643389210564900,3.09256494140625,9.736950874328613,0.016950000077486038,-0.322050005197525
1742643389226457600,3.10845751953125,9.871050834655762,0.036000002175569534,-0.37905001640319824
1742643389242349600,3.124349609375,9.871050834655762,-0.0019500000635161996,-0.37905001640319824
1742643389258242000,3.140241943359375,9.985950469970703,-0.0019500000635161996,-0.39795002341270447
1742643389274134800,3.156134765625,9.8899507522583,0.016950000077486038,-0.36000001430511475
1742643389290027000,3.172027099609375,9.775050163269043,0.05505000427365303,-0.37905001640319824
1742643389305918200,3.187918212890625,9.775050163269043,0.07395000010728836,-0.36000001430511475
1742643389321811500,3.2038115234375,9.775050163269043,0.07395000010728836,-0.34095001220703125
1742643389337704400,3.219704345703125,9.775050163269043,0.07395000010728836,-0.39795002341270447
1742643389353597200,3.23559716796875,9.736950874328613,0.07395000010728836,-0.41700002551078796
1742643389369489200,3.2514892578125,9.679950714111328,0.016950000077486038,-0.39795002341270447
1742643389385383200,3.267383056640625,9.60300064086914,-0.0970500037074089,-0.36000001430511475
1742643389409222400,3.291222412109375,9.507000923156738,-0.11595000326633453,-0.36000001430511475
1742643389425115000,3.307114990234375,9.718050003051758,-0.11595000326633453,-0.47505003213882446
1742643389441007600,3.323007568359375,10.120050430297852,-0.0970500037074089,-0.609000027179718
1742643389456900900,3.33890087890625,10.273050308227539,-0.0970500037074089,-0.6469500064849854
1742643389472793300,3.35479345703125,10.177950859069824,-0.04005000367760658,-0.5899500250816345
1742643389488686000,3.37068603515625,10.063050270080566,-0.0019500000635161996,-0.47505003213882446
1742643389504578800,3.386578857421875,9.967050552368164,-0.0019500000635161996,-0.43695002794265747
1742643389520471600,3.402471435546875,9.928950309753418,-0.021000001579523087,-0.47505003213882446
1742643389536364300,3.4183642578125,9.8899507522583,-0.04005000367760658,-0.45600003004074097
1742643389552257800,3.4342578125,9.832950592041016,-0.021000001579523087,-0.5320500135421753
1742643389568149500,3.4501494140625,9.8899507522583,-0.021000001579523087,-0.5320500135421753
1742643389584042000,3.4660419921875,9.814050674438477,-0.021000001579523087,-0.4939500093460083
1742643389599934200,3.481934326171875,9.775050163269043,-0.021000001579523087,-0.43695002794265747
1742643389615826200,3.497826171875,9.775050163269043,-0.07800000160932541,-0.41700002551078796
1742643389631718400,3.513718505859375,9.85200023651123,-0.11595000326633453,-0.41700002551078796
1742643389647611100,3.529611083984375,9.871050834655762,-0.0970500037074089,-0.43695002794265747
1742643389663504000,3.54550390625,9.909000396728516,-0.05895000323653221,-0.43695002794265747
1742643389679396600,3.561396728515625,9.871050834655762,-0.04005000367760658,-0.47505003213882446
1742643389695289600,3.57728955078125,9.814050674438477,-0.04005000367760658,-0.41700002551078796
1742643389711182600,3.5931826171875,9.756000518798828,-0.07800000160932541,-0.37905001640319824
1742643389727076000,3.609076171875,9.909000396728516,-0.04005000367760658,-0.36000001430511475
1742643389742969600,3.624969482421875,9.85200023651123,-0.0019500000635161996,-0.37905001640319824
1742643389758863000,3.640863037109375,9.718050003051758,0.036000002175569534,-0.37905001640319824
1742643389774756000,3.656756103515625,9.661050796508789,0.016950000077486038,-0.34095001220703125
1742643389790647600,3.6726474609375,9.640950202941895,-0.021000001579523087,-0.322050005197525
1742643389806540800,3.688540771484375,9.814050674438477,-0.021000001579523087,-0.36000001430511475
1742643389822431200,3.70443115234375,9.871050834655762,-0.04005000367760658,-0.5130000114440918
1742643389838321400,3.7203212890625,9.909000396728516,-0.04005000367760658,-0.4939500093460083
1742643389854211300,3.73621142578125,9.814050674438477,-0.04005000367760658,-0.43695002794265747
1742643389870101500,3.7521015625,9.85200023651123,-0.04005000367760658,-0.43695002794265747
1742643389885991400,3.767991455078125,9.8899507522583,-0.0019500000635161996,-0.47505003213882446
1742643389901883000,3.7838828125,9.814050674438477,0.016950000077486038,-0.43695002794265747
1742643389917773300,3.799773193359375,9.699000358581543,0.05505000427365303,-0.37905001640319824
1742643389933664800,3.815664794921875,9.58395004272461,0.036000002175569534,-0.41700002551078796
1742643389949556500,3.831556396484375,9.56505012512207,0.036000002175569534,-0.43695002794265747
1742643389965447400,3.847447509765625,9.699000358581543,-0.0019500000635161996,-0.47505003213882446
1742643389981339100,3.863339111328125,9.832950592041016,-0.0019500000635161996,-0.4939500093460083
1742643389997229600,3.8792294921875,9.699000358581543,0.016950000077486038,-0.45600003004074097
1742643390013122300,3.895122314453125,9.795000076293945,-0.0019500000635161996,-0.45600003004074097
1742643390029015300,3.911015380859375,9.85200023651123,-0.0019500000635161996,-0.47505003213882446
1742643390044908300,3.926908203125,9.871050834655762,-0.021000001579523087,-0.5320500135421753
1742643390060801800,3.9428017578125,9.928950309753418,0.07395000010728836,-0.5520000457763672
1742643390076693200,3.958693359375,9.967050552368164,0.036000002175569534,-0.609000027179718
1742643390092583700,3.974583740234375,9.795000076293945,-0.021000001579523087,-0.5899500250816345
1742643390108475400,3.990475341796875,9.832950592041016,-0.04005000367760658,-0.6859500408172607
1742643390124366300,4.006366455078125,9.871050834655762,-0.05895000323653221,-0.7620000243186951
1742643390140257800,4.0222578125,9.718050003051758,-0.556950032711029,-0.4939500093460083
1742643390156148500,4.0381484375,9.871050834655762,-0.4039500057697296,-0.47505003213882446
1742643390172038400,4.054038330078125,9.699000358581543,0.16995000839233398,-0.820050060749054
1742643390187930000,4.06993017578125,9.622050285339355,0.2850000262260437,-0.9150000214576721
1742643390203821600,4.085821533203125,10.044000625610352,0.09300000220537186,-0.9340500235557556
1742643390219711500,4.10171142578125,10.330950736999512,0.20805001258850098,-0.9540000557899475
1742643390235604000,4.11760400390625,10.387950897216797,0.40005001425743103,-1.0110000371932983
1742643390251497200,4.133497314453125,10.387950897216797,0.534000039100647,-1.0110000371932983
1742643390267389700,4.1493896484375,10.197000503540039,0.37995001673698425,-0.9540000557899475
1742643390283281700,4.16528173828125,10.216050148010254,-0.6139500141143799,-0.5520000457763672
1742643390299174000,4.181173828125,10.120050430297852,-0.7099500298500061,-0.5320500135421753
1742643390315064800,4.19706494140625,9.469050407409668,-0.05895000323653221,-0.5320500135421753
1742643390330954000,4.2129541015625,9.04800033569336,0.361050009727478,-0.5899500250816345
1742643390346845700,4.228845703125,9.238950729370117,0.2460000067949295,-0.7240500450134277
1742643390362738700,4.24473876953125,9.56505012512207,-0.07800000160932541,-0.7050000429153442
1742643390378629400,4.26062939453125,9.661050796508789,-0.27000001072883606,-0.5899500250816345
1742643390394520800,4.276520751953125,9.699000358581543,-0.25005000829696655,-0.5520000457763672
1742643390410412500,4.29241259765625,9.909000396728516,-0.05895000323653221,-0.6469500064849854
1742643390426304500,4.308304443359375,9.967050552368164,0.07395000010728836,-0.7429500222206116
1742643390442196500,4.324196533203125,10.044000625610352,0.07395000010728836,-0.7429500222206116
1742643390458088000,4.340087890625,10.02405071258545,0.05505000427365303,-0.6469500064849854
1742643390473980200,4.355980224609375,9.8899507522583,-0.04005000367760658,-0.5520000457763672
1742643390489873000,4.371872802734375,9.928950309753418,-0.05895000323653221,-0.5899500250816345
1742643390505765600,4.387765625,9.871050834655762,-0.0019500000635161996,-0.6280500292778015
1742643390521658000,4.403658203125,9.756000518798828,0.036000002175569534,-0.609000027179718
1742643390537549800,4.4195498046875,9.718050003051758,-0.0019500000635161996,-0.609000027179718
1742643390553442000,4.435442138671875,9.699000358581543,-0.0019500000635161996,-0.6859500408172607
1742643390569334000,4.451333984375,9.871050834655762,-0.0019500000635161996,-0.7240500450134277
1742643390585226200,4.467226318359375,9.8899507522583,0.016950000077486038,-0.7050000429153442
1742643390601119000,4.483118896484375,9.832950592041016,0.05505000427365303,-0.6469500064849854
1742643390617011500,4.499011474609375,9.814050674438477,0.036000002175569534,-0.6469500064849854
1742643390632903400,4.5149033203125,9.736950874328613,0.07395000010728836,-0.6469500064849854
1742643390648795600,4.530795654296875,9.756000518798828,0.05505000427365303,-0.6660000085830688
1742643390664690400,4.5466904296875,9.85200023651123,0.05505000427365303,-0.7050000429153442
1742643390680584200,4.562584228515625,9.871050834655762,0.07395000010728836,-0.6859500408172607
1742643390696478500,4.578478515625,9.967050552368164,0.09300000220537186,-0.609000027179718
1742643390712371200,4.59437109375,9.871050834655762,0.13199999928474426,-0.5710500478744507
1742643390728264700,4.6102646484375,9.85200023651123,0.11205000430345535,-0.5520000457763672
1742643390744157700,4.62615771484375,9.814050674438477,0.09300000220537186,-0.5710500478744507
1742643390760050200,4.64205029296875,9.814050674438477,0.05505000427365303,-0.5520000457763672
1742643390775942000,4.65794189453125,9.909000396728516,0.07395000010728836,-0.5710500478744507
1742643390791834600,4.673834716796875,9.909000396728516,0.11205000430345535,-0.609000027179718
1742643390807725000,4.68972509765625,9.909000396728516,0.15105000138282776,-0.5710500478744507
1742643390823619000,4.705619140625,9.736950874328613,0.09300000220537186,-0.4939500093460083
1742643390839512000,4.721511962890625,9.795000076293945,0.07395000010728836,-0.45600003004074097
1742643390855406000,4.737406005859375,9.85200023651123,0.11205000430345535,-0.4939500093460083
1742643390871300900,4.75330078125,9.909000396728516,0.11205000430345535,-0.5320500135421753
1742643390887193000,4.769193115234375,9.909000396728516,0.15105000138282776,-0.4939500093460083
1742643390903084800,4.785084716796875,9.775050163269043,0.13199999928474426,-0.43695002794265747
1742643390918977500,4.8009775390625,9.775050163269043,0.15105000138282776,-0.41700002551078796
1742643390934870300,4.816870361328125,9.775050163269043,0.16995000839233398,-0.39795002341270447
1742643390950762000,4.832761962890625,9.814050674438477,0.18900001049041748,-0.43695002794265747
1742643390966653700,4.84865380859375,9.909000396728516,0.18900001049041748,-0.43695002794265747
1742643390982546200,4.864546142578125,9.832950592041016,0.16995000839233398,-0.39795002341270447
1742643390998439700,4.880439697265625,9.814050674438477,0.18900001049041748,-0.36000001430511475
1742643391014332700,4.896332763671875,9.832950592041016,0.15105000138282776,-0.37905001640319824
1742643391030224600,4.912224609375,9.832950592041016,0.16995000839233398,-0.36000001430511475
1742643391046117400,4.928117431640625,9.814050674438477,0.18900001049041748,-0.34095001220703125
1742643391062010600,4.9440107421875,9.814050674438477,0.20805001258850098,-0.322050005197525
1742643391077902600,4.959902587890625,9.795000076293945,0.18900001049041748,-0.30300000309944153
1742643391101739500,4.983739501953125,9.775050163269043,0.20805001258850098,-0.24495001137256622
1742643391117632800,4.9996328125,9.775050163269043,0.16995000839233398,-0.16905000805854797
1742643391133525800,5.01552587890625,9.795000076293945,0.18900001049041748,-0.1879500150680542
1742643391149420000,5.031419921875,9.832950592041016,0.226950004696846,-0.22605000436306
1742643391165312800,5.047312744140625,9.795000076293945,0.20805001258850098,-0.22605000436306
1742643391181204700,5.063204833984375,9.756000518798828,0.18900001049041748,-0.1879500150680542
1742643391197097000,5.079096923828125,9.832950592041016,0.2460000067949295,-0.2070000171661377
1742643391212989200,5.0949892578125,9.928950309753418,0.18900001049041748,-0.22605000436306
1742643391228882200,5.110882080078125,9.814050674438477,0.20805001258850098,-0.1879500150680542
1742643391252722200,5.13472216796875,9.718050003051758,0.18900001049041748,-0.13005000352859497
1742643391268616200,5.1506162109375,9.699000358581543,0.18900001049041748,-0.1489500105381012
1742643391284509200,5.16650927734375,9.871050834655762,0.18900001049041748,-0.1489500105381012
1742643391300402700,5.182402587890625,9.909000396728516,0.16995000839233398,-0.13005000352859497
1742643391316295200,5.198295166015625,9.871050834655762,0.16995000839233398,-0.07304999977350235
1742643391332188200,5.214188232421875,9.94800090789795,0.15105000138282776,-0.11100000888109207
1742643391348081400,5.230081298828125,9.985950469970703,0.18900001049041748,-0.1489500105381012
1742643391363975000,5.245974853515625,9.967050552368164,0.16995000839233398,-0.1489500105381012
1742643391379867400,5.261867431640625,9.832950592041016,0.18900001049041748,-0.13005000352859497
1742643391395759400,5.27775927734375,9.775050163269043,0.20805001258850098,-0.05400000140070915
1742643391411650800,5.29365087890625,9.756000518798828,0.226950004696846,0.022050000727176666
1742643391427542000,5.3095419921875,9.832950592041016,0.226950004696846,-0.015000000596046448
1742643391443434000,5.32543408203125,9.718050003051758,0.18900001049041748,0.022050000727176666
1742643391459327000,5.341326904296875,9.795000076293945,0.18900001049041748,0.06000000238418579
1742643391475221500,5.357221435546875,9.985950469970703,0.13199999928474426,0.13695000112056732
1742643391491115800,5.37311572265625,10.02405071258545,0.05505000427365303,0.15600000321865082
1742643391507005400,5.38900537109375,9.8899507522583,0.13199999928474426,0.13695000112056732
1742643391522897200,5.404897216796875,10.350000381469727,0.41895002126693726,0.15600000321865082
1742643391538790100,5.4207900390625,11.154000282287598,0.41895002126693726,0.022050000727176666
1742643391554683400,5.436683349609375,11.154000282287598,-0.6330000162124634,-0.034050002694129944
1742643391570578000,5.452577880859375,10.4839506149292,-1.1119500398635864,0.6349500417709351
1742643391586472000,5.468471923828125,10.291950225830078,-0.4039500057697296,0.7879500389099121
1742643391602362600,5.484362548828125,9.507000923156738,0.16995000839233398,1.7260501384735107
1742643391618254800,5.5002548828125,9.391950607299805,0.8400000333786011,2.3010001182556152
1742643391634147000,5.51614697265625,9.163050651550293,1.3189500570297241,2.722050189971924
1742643391650038500,5.53203857421875,8.665050506591797,1.4910000562667847,2.8369500637054443
1742643391665930500,5.547930419921875,8.646000862121582,1.6630500555038452,2.932950258255005
1742643391681824300,5.56382421875,8.18595027923584,1.6249500513076782,3.3349502086639404
1742643391697717000,5.579717041015625,7.707000255584717,1.6249500513076782,3.736950159072876
1742643391713609200,5.595609130859375,7.573050498962402,1.6060501337051392,4.024050235748291
1742643391729501400,5.61150146484375,7.746000289916992,1.5679501295089722,4.195950031280518
1742643391745394200,5.627394287109375,8.148000717163086,1.3570500612258911,4.560000419616699
1742643391761287200,5.643287109375,8.41604995727539,1.204050064086914,4.599000453948975
1742643391777179600,5.6591796875,8.51205062866211,1.0120500326156616,4.8480000495910645
1742643391793073400,5.675073486328125,8.397000312805176,0.9739500284194946,5.038950443267822
1742643391808967200,5.69096728515625,8.491950035095215,0.9550500512123108,5.038950443267822
1742643391824861200,5.706861083984375,8.79900074005127,1.0120500326156616,4.752000331878662
1742643391840753700,5.722753662109375,8.70300006866455,1.165950059890747,4.540950298309326
1742643391856646400,5.738646484375,8.18595027923584,1.3380000591278076,4.560000419616699
1742643391872538000,5.7545380859375,7.630950450897217,1.3380000591278076,4.656000137329102
1742643391888430300,5.770430419921875,7.401000499725342,1.3380000591278076,4.483950138092041
1742643391904324600,5.78632470703125,6.903000354766846,1.4719500541687012,3.507000207901001
1742643391920217600,5.802217529296875,7.152000427246094,1.1080501079559326,2.8560001850128174
1742643391936110600,5.818110595703125,8.089950561523438,0.20805001258850098,2.052000045776367
1742643391952004900,5.8340048828125,9.699000358581543,-0.23100000619888306,0.5389500260353088
1742643391967897600,5.849897705078125,11.00100040435791,-0.556950032711029,-0.7999500632286072
1742643391983790800,5.865790771484375,11.767050743103027,-0.6910500526428223,-1.39395010471344
1742643391999683000,5.88168310546875,11.767050743103027,-0.6139500141143799,-1.4710500240325928
1742643392015576000,5.897576171875,11.767050743103027,-0.3850500285625458,-1.7389501333236694
1742643392031468000,5.913468017578125,11.824050903320312,-0.23100000619888306,-2.1220500469207764
1742643392047360300,5.9293603515625,11.53695011138916,-0.3460500240325928,-2.026050090789795
1742643392063251500,5.94525146484375,11.326050758361816,-0.3850500285625458,-1.7770501375198364
1742643392079140600,5.961140625,10.522050857543945,0.32295000553131104,-2.3519999980926514
1742643392095032600,5.977032470703125,9.640950202941895,0.43800002336502075,-2.293950080871582
1742643392110923800,5.992923828125,8.952000617980957,0.534000039100647,-2.1600000858306885
1742643392126815700,6.008815673828125,8.550000190734863,0.4759500324726105,-1.9300501346588135
1742643392142708700,6.024708740234375,8.607000350952148,0.5530500411987305,-1.7200500965118408
1742643392158602800,6.040602783203125,8.79900074005127,0.5910000205039978,-1.5859500169754028
1742643392174495200,6.0564951171875,9.201000213623047,0.5910000205039978,-1.5660001039505005
1742643392190388700,6.072388671875,9.487950325012207,0.5719500184059143,-1.699950098991394
1742643392206283500,6.088283447265625,9.60300064086914,0.49500003457069397,-1.91100013256073
1742643392222176500,6.104176513671875,9.699000358581543,0.4759500324726105,-2.1600000858306885
1742643392238068500,6.120068359375,9.546000480651855,0.4759500324726105,-2.236950159072876
1742643392253959700,6.135959716796875,9.718050003051758,0.534000039100647,-2.026050090789795
1742643392269851100,6.15185107421875,9.699000358581543,0.4759500324726105,-1.9690500497817993
1742643392285744000,6.167744140625,9.718050003051758,0.3040500283241272,-2.7150001525878906
1742643392301637000,6.18363720703125,9.775050163269043,0.15105000138282776,-2.811000108718872
1742643392317531100,6.19953125,9.12405014038086,-0.05895000323653221,-2.8690500259399414
1742643392333422800,6.2154228515625,9.028950691223145,0.40005001425743103,-2.505000114440918
1742643392349315300,6.2313154296875,8.607000350952148,0.6289500594139099,-2.9260501861572266
1742643392365209300,6.247209228515625,8.952000617980957,0.8209500312805176,-3.538950204849243
1742643392381101800,6.263101806640625,9.354000091552734,0.8400000333786011,-3.8830502033233643
1742643392396993300,6.2789931640625,9.391950607299805,0.6490500569343567,-4.285950183868408
1742643392412885000,6.294885009765625,9.297000885009766,0.4759500324726105,-4.515000343322754
1742643392428776200,6.310776123046875,9.12405014038086,0.20805001258850098,-4.72605037689209
1742643392444669200,6.326669189453125,9.009000778198242,0.036000002175569534,-4.630050182342529
1742643392460558300,6.342558349609375,9.028950691223145,0.05505000427365303,-4.630050182342529
1742643392476447000,6.358447021484375,8.855999946594238,0.15105000138282776,-4.764000415802002
1742643392492338700,6.374338623046875,8.665050506591797,0.37995001673698425,-5.089950084686279
1742643392508231000,6.39023095703125,8.626049995422363,0.5910000205039978,-5.4150004386901855
1742643392524123000,6.406122802734375,8.434950828552246,0.6490500569343567,-5.511000156402588
1742643392540015000,6.42201513671875,8.377950668334961,0.6679500341415405,-5.434950351715088
1742643392555906600,6.437906494140625,8.51205062866211,0.687000036239624,-5.26200008392334
1742643392571798300,6.45379833984375,8.626049995422363,0.8020500540733337,-5.242950439453125
1742643392587689700,6.469689697265625,8.836950302124023,0.9930000305175781,-5.1660003662109375
1742643392603583700,6.485583740234375,8.952000617980957,1.0890001058578491,-5.052000045776367
1742643392619476200,6.501476318359375,8.971050262451172,1.0699501037597656,-4.72605037689209
1742643392635370000,6.517369873046875,8.836950302124023,0.8779500126838684,-4.228050231933594
1742643392651263500,6.533263427734375,8.914050102233887,0.5530500411987305,-3.787950277328491
1742643392667157000,6.549156982421875,8.932950019836426,0.07395000010728836,-3.328050136566162
1742643392683049500,6.565049560546875,8.491950035095215,-0.11595000326633453,-2.6200501918792725
1742643392698942200,6.580942138671875,8.301000595092773,-0.0019500000635161996,-1.4130001068115234
1742643392714837200,6.596837158203125,8.665050506591797,-0.27000001072883606,0.520050048828125
1742643392730729200,6.612729248046875,8.87505054473877,-0.28905001282691956,1.3819500207901
1742643392746622500,6.62862255859375,9.31605052947998,-0.21195000410079956,1.420050024986267
1742643392762514700,6.6445146484375,9.985950469970703,0.11205000430345535,1.1710500717163086
1742643392778404000,6.660404052734375,10.828950881958008,0.40005001425743103,0.8650500178337097
1742643392794296800,6.676296875,11.307000160217285,0.6100500226020813,0.5959500074386597
1742643392810189000,6.69218896484375,11.097000122070312,0.6490500569343567,0.6349500417709351
1742643392826081500,6.70808154296875,10.944000244140625,0.5719500184059143,0.8449500203132629
1742643392841973500,6.723973388671875,10.350000381469727,0.361050009727478,1.0180500745773315
1742643392857866800,6.73986669921875,9.622050285339355,0.13199999928474426,1.152000069618225
1742643392873760800,6.7557607421875,9.238950729370117,0.036000002175569534,1.2480000257492065
1742643392889654800,6.77165478515625,9.105000495910645,0.036000002175569534,1.1899501085281372
1742643392905547800,6.7875478515625,9.201000213623047,0.11205000430345535,1.1329500675201416
1742643392921441000,6.80344091796875,9.795000076293945,0.2659500241279602,1.1710500717163086
1742643392937335000,6.8193349609375,10.101000785827637,0.361050009727478,1.3620001077651978
1742643392953228500,6.835228515625,10.081950187683105,0.41895002126693726,1.4389500617980957
1742643392969120800,6.851120849609375,10.197000503540039,0.43800002336502075,1.5919500589370728
1742643392985012500,6.867012451171875,10.216050148010254,0.32295000553131104,1.6110000610351562
1742643393000906200,6.88290625,9.985950469970703,0.09300000220537186,1.6110000610351562
1742643393016798200,6.898798095703125,9.58395004272461,-0.15495000779628754,1.7070001363754272
1742643393032690700,6.914690673828125,9.028950691223145,-0.3079500198364258,1.8990000486373901
1742643393048582100,6.93058203125,8.646000862121582,-0.21195000410079956,2.3959500789642334
1742643393064475000,6.946474853515625,8.454000473022461,0.036000002175569534,2.9710500240325928
1742643393080366000,6.962365966796875,8.41604995727539,0.361050009727478,3.3919501304626465
1742643393096259000,6.978259033203125,8.434950828552246,0.5140500068664551,3.3919501304626465
1742643393112152000,6.994152099609375,8.7610502243042,0.4759500324726105,3.469050168991089
1742643393128044500,7.01004443359375,9.238950729370117,0.43800002336502075,3.775050163269043
1742643393143937300,7.025937255859375,9.373050689697266,0.534000039100647,4.273050308227539
1742643393159829000,7.0418291015625,9.163050651550293,0.5719500184059143,4.483950138092041
1742643393175721200,7.05772119140625,8.87505054473877,0.6679500341415405,4.503000259399414
1742643393191614500,7.073614501953125,8.587950706481934,0.8209500312805176,4.426050186157227
1742643393207506200,7.089506103515625,8.473050117492676,0.8779500126838684,4.522050380706787
1742643393223398100,7.105398193359375,8.473050117492676,0.8400000333786011,4.771050453186035
1742643393239291100,7.121291015625,8.569050788879395,0.7630500197410583,4.962000370025635
1742643393255184400,7.137184326171875,8.550000190734863,0.6490500569343567,4.962000370025635
1742643393271079000,7.153078857421875,8.855999946594238,0.5530500411987305,5.00100040435791
1742643393286974200,7.16897412109375,9.60300064086914,0.41895002126693726,4.90500020980835
1742643393302868000,7.184867919921875,10.216050148010254,0.534000039100647,4.369050025939941
1742643393318762800,7.2007626953125,9.985950469970703,0.5140500068664551,3.756000280380249
1742643393334657800,7.21665771484375,9.526050567626953,0.49500003457069397,3.4110002517700195
1742643393350550500,7.232550537109375,9.373050689697266,0.32295000553131104,3.0480000972747803
1742643393366444500,7.248444580078125,9.354000091552734,0.40005001425743103,2.5309500694274902
1742643393382337300,7.264337158203125,9.297000885009766,0.2659500241279602,1.6300500631332397
1742643393398232800,7.28023291015625,9.201000213623047,-0.0019500000635161996,0.8449500203132629
1742643393414125000,7.296125,9.163050651550293,-0.17400000989437103,0.27105000615119934
1742643393430017300,7.312017333984375,9.277950286865234,-0.3079500198364258,-0.1879500150680542
1742643393445910500,7.32791064453125,9.33495044708252,-0.27000001072883606,-0.5130000114440918
1742643393461803500,7.343803466796875,9.430950164794922,-0.17400000989437103,-0.609000027179718
1742643393477696300,7.3596962890625,9.507000923156738,0.07395000010728836,-0.6859500408172607
1742643393493587200,7.375587158203125,9.60300064086914,0.2460000067949295,-0.7810500264167786
1742643393509479400,7.3914794921875,9.718050003051758,0.40005001425743103,-1.0300500392913818
1742643393525373700,7.407373779296875,9.814050674438477,0.40005001425743103,-1.1069999933242798
1742643393541267500,7.423267333984375,10.101000785827637,0.45705002546310425,-1.0489500761032104
1742643393557162200,7.439162353515625,10.101000785827637,0.5140500068664551,-1.1069999933242798
1742643393573057000,7.45505712890625,9.985950469970703,0.534000039100647,-1.1260499954223633
1742643393588952300,7.470952392578125,9.871050834655762,0.37995001673698425,-0.9340500235557556
1742643393604845600,7.486845458984375,10.005000114440918,0.2460000067949295,-0.8580000400543213
1742643393620739000,7.502739013671875,10.216050148010254,0.43800002336502075,-1.0110000371932983
1742643393636633300,7.51863330078125,10.273050308227539,0.6100500226020813,-1.297950029373169
1742643393652526800,7.53452685546875,10.234950065612793,0.6289500594139099,-1.6429500579833984
1742643393668420000,7.550420166015625,10.158000946044922,0.6289500594139099,-1.9690500497817993
1742643393684312800,7.566312744140625,10.02405071258545,0.49500003457069397,-2.1409502029418945
1742643393700204300,7.582204345703125,9.85200023651123,0.37995001673698425,-2.25600004196167
1742643393716096500,7.598096435546875,9.546000480651855,0.37995001673698425,-2.25600004196167
1742643393731990000,7.613989990234375,9.31605052947998,0.43800002336502075,-2.1030001640319824
1742643393747882000,7.629882080078125,9.220050811767578,0.49500003457069397,-2.332050085067749
1742643393763773700,7.645773681640625,9.04800033569336,0.534000039100647,-2.830050230026245
1742643393779666200,7.661666259765625,8.952000617980957,0.5719500184059143,-3.328050136566162
1742643393795558100,7.67755810546875,9.009000778198242,0.6289500594139099,-3.6150002479553223
1742643393811451000,7.693450927734375,9.067049980163574,0.6289500594139099,-3.748950242996216
1742643393827342300,7.70934228515625,9.067049980163574,0.687000036239624,-4.03695011138916
1742643393843234800,7.72523486328125,9.08595085144043,0.7440000176429749,-4.342950344085693
1742643393859128000,7.741128173828125,8.989950180053711,0.8209500312805176,-4.687950134277344
1742643393875021000,7.75702099609375,8.740950584411621,0.8779500126838684,-4.840950012207031
1742643393890913800,7.772913818359375,8.569050788879395,0.8779500126838684,-4.840950012207031
1742643393906805000,7.788804931640625,8.473050117492676,0.8400000333786011,-4.764000415802002
1742643393922696700,7.80469677734375,8.377950668334961,0.8400000333786011,-4.803000450134277
1742643393938588400,7.82058837890625,8.128950119018555,0.9360000491142273,-5.128050327301025
1742643393954478000,7.83647802734375,8.052000045776367,0.9550500512123108,-5.6260504722595215
1742643393970369300,7.852369384765625,8.128950119018555,1.0320000648498535,-5.836950302124023
1742643393986260200,7.86826025390625,8.071050643920898,0.9360000491142273,-5.664000034332275
1742643394002151400,7.8841513671875,8.071050643920898,0.8590500354766846,-5.569050312042236
1742643394018041900,7.900041748046875,8.071050643920898,0.8400000333786011,-5.587950229644775
1742643394033932000,7.91593212890625,8.263050079345703,0.9360000491142273,-5.6260504722595215
1742643394049823700,7.93182373046875,8.338950157165527,1.0699501037597656,-5.818050384521484
1742643394065714000,7.9477138671875,8.204999923706055,1.204050064086914,-5.989950180053711
1742643394081604400,7.963604248046875,7.879950523376465,1.2799500226974487,-6.124050140380859
1742643394097494800,7.979494873046875,7.612050533294678,1.3189500570297241,-6.22005033493042
1742643394113388500,7.995388427734375,7.458000183105469,1.3380000591278076,-6.1620001792907715
1742643394129281800,8.01128173828125,7.516050338745117,1.3570500612258911,-6.258000373840332
1742643394145176000,8.027176025390625,7.669050216674805,1.3950001001358032,-6.199950218200684
1742643394161067300,8.0430673828125,7.803000450134277,1.4530500173568726,-6.046950340270996
1742643394176960000,8.0589599609375,7.861050605773926,1.5289500951766968,-5.797950267791748
1742643394192852200,8.074852294921875,7.687950134277344,1.6440000534057617,-5.569050312042236
1742643394208743700,8.09074365234375,7.477950572967529,1.7779500484466553,-5.779050350189209
1742643394224635000,8.106634765625,7.458000183105469,1.7779500484466553,-5.8560004234313965
1742643394240526800,8.12252685546875,7.554000377655029,1.683000087738037,-5.722050189971924
1742643394256420000,8.138420166015624,7.65000057220459,1.3950001001358032,-5.242950439453125
1742643394272313300,8.154313232421876,7.783950328826904,1.3570500612258911,-4.840950012207031
1742643394288205800,8.170205810546875,7.936950206756592,1.1080501079559326,-4.477050304412842
1742643394304098600,8.1860986328125,8.18595027923584,1.2229501008987427,-4.342950344085693
1742643394319990500,8.201990478515626,8.491950035095215,1.1269500255584717,-4.152000427246094
1742643394335882000,8.217882080078125,8.818050384521484,1.0320000648498535,-3.9600002765655518
1742643394351775500,8.233775390625,9.12405014038086,0.8590500354766846,-3.826050281524658
1742643394367668000,8.24966796875,9.31605052947998,0.8209500312805176,-3.4999501705169678
1742643394383560400,8.265560546875,9.469050407409668,0.7249500155448914,-3.4429502487182617
1742643394399452200,8.2814521484375,9.487950325012207,0.687000036239624,-3.289950132369995
1742643394415343900,8.29734375,9.58395004272461,0.687000036239624,-2.9830501079559326
1742643394431235800,8.31323583984375,9.640950202941895,0.6679500341415405,-2.6200501918792725
1742643394447128800,8.32912890625,9.622050285339355,0.7440000176429749,-2.562000036239624
1742643394463021300,8.345021240234376,9.640950202941895,0.8209500312805176,-2.7150001525878906
1742643394478912800,8.360912841796875,9.661050796508789,0.7830000519752502,-2.791950225830078
1742643394494803200,8.37680322265625,9.736950874328613,0.687000036239624,-2.754000186920166
1742643394510695000,8.39269482421875,9.679950714111328,0.6100500226020813,-2.4469501972198486
1742643394526586600,8.408586669921876,9.507000923156738,0.5719500184059143,-2.044950008392334
1742643394542479600,8.424479736328125,9.450000762939453,0.5719500184059143,-1.7200500965118408
1742643394558371600,8.44037158203125,9.507000923156738,0.5530500411987305,-1.662000060081482
1742643394574264300,8.456264404296874,9.640950202941895,0.49500003457069397,-1.7200500965118408
1742643394590157300,8.4721572265625,9.736950874328613,0.40005001425743103,-1.6810500621795654
1742643394606049300,8.48804931640625,9.775050163269043,0.15105000138282776,-1.4710500240325928
1742643394621942500,8.503942626953124,9.795000076293945,0.016950000077486038,-1.1830500364303589
1742643394637835500,8.51983544921875,9.795000076293945,0.036000002175569534,-0.8959500193595886
1742643394653725700,8.5357255859375,9.795000076293945,0.15105000138282776,-0.7810500264167786
1742643394669616000,8.5516162109375,9.8899507522583,0.2850000262260437,-0.7429500222206116
1742643394685507000,8.567507080078125,10.101000785827637,0.3040500283241272,-0.7050000429153442
1742643394701398500,8.5833984375,10.120050430297852,0.226950004696846,-0.5710500478744507
1742643394717289700,8.599289794921875,9.928950309753418,0.18900001049041748,-0.5520000457763672
1742643394733184500,8.6151845703125,9.699000358581543,0.11205000430345535,-0.45600003004074097
1742643394749077500,8.631077392578124,9.640950202941895,0.09300000220537186,-0.34095001220703125
1742643394764970200,8.64697021484375,9.756000518798828,0.05505000427365303,-0.16905000805854797
1742643394780864000,8.662864013671875,9.871050834655762,0.05505000427365303,0.0990000069141388
1742643394796758000,8.678758056640625,9.832950592041016,0.016950000077486038,0.19395001232624054
1742643394812651500,8.694651611328124,9.679950714111328,0.036000002175569534,0.25200000405311584
1742643394828546800,8.710546875,9.661050796508789,-0.0019500000635161996,0.36705002188682556
1742643394844439600,8.726439453125,9.795000076293945,-0.05895000323653221,0.5010000467300415
1742643394860332300,8.742332275390625,9.775050163269043,-0.1360500007867813,0.7300500273704529
1742643394876225000,8.75822509765625,9.814050674438477,-0.19305001199245453,0.9030000567436218
1742643394892116700,8.77411669921875,9.814050674438477,-0.27000001072883606,1.1130000352859497
1742643394908009500,8.790009521484375,9.8899507522583,-0.3079500198364258,1.26705002784729
1742643394923903500,8.805903564453125,10.081950187683105,-0.3460500240325928,1.3429501056671143
1742643394939796500,8.82179638671875,10.063050270080566,-0.3270000219345093,1.3620001077651978
1742643394955688700,8.837688720703126,9.985950469970703,-0.25005000829696655,1.2090001106262207
1742643394971581400,8.85358154296875,9.85200023651123,-0.19305001199245453,1.0939500331878662
1742643394987475000,8.869474853515625,9.699000358581543,-0.07800000160932541,0.9600000381469727
1742643395011316700,8.893316650390625,9.775050163269043,0.016950000077486038,0.7879500389099121
1742643395027210000,8.9092099609375,9.736950874328613,0.05505000427365303,0.7500000596046448
1742643395043102200,8.925102294921874,9.661050796508789,0.07395000010728836,0.7690500617027283
1742643395058994700,8.94099462890625,9.718050003051758,0.016950000077486038,0.6160500049591064
1742643395074886000,8.956885986328125,9.909000396728516,0.016950000077486038,0.36705002188682556
1742643395090777000,8.972777099609376,10.005000114440918,0.07395000010728836,0.19395001232624054
1742643395106668500,8.98866845703125,10.177950859069824,0.09300000220537186,0.15600000321865082
1742643395122560000,9.00456005859375,10.4839506149292,0.09300000220537186,0.17505000531673431
1742643395138453000,9.020452880859375,10.4839506149292,0.05505000427365303,0.27105000615119934
1742643395154345500,9.036345458984375,10.387950897216797,0.036000002175569534,0.32805001735687256
1742643395170239200,9.0522392578125,10.330950736999512,0.07395000010728836,0.30900001525878906
1742643395186133800,9.0681337890625,9.909000396728516,0.09300000220537186,0.4240500330924988
1742643395202027500,9.084027587890626,9.60300064086914,0.11205000430345535,0.6349500417709351
1742643395217919700,9.099919677734375,9.58395004272461,0.16995000839233398,0.7690500617027283
1742643395233813000,9.11581298828125,9.756000518798828,0.2460000067949295,0.8650500178337097
1742643395249706500,9.13170654296875,9.928950309753418,0.2659500241279602,0.9030000567436218
1742643395265600000,9.14760009765625,9.8899507522583,0.2659500241279602,0.9220500588417053
1742643395281492700,9.16349267578125,9.94800090789795,0.2659500241279602,0.999000072479248
1742643395297385700,9.1793857421875,10.46505069732666,0.40005001425743103,1.152000069618225
1742643395313278500,9.195278564453124,10.407000541687012,0.4759500324726105,1.2480000257492065
1742643395329171700,9.211171630859376,10.101000785827637,0.534000039100647,1.3620001077651978
1742643395345065000,9.22706494140625,9.85200023651123,0.5719500184059143,1.5730500221252441
1742643395360959200,9.242959228515625,9.507000923156738,0.6289500594139099,1.8600001335144043
1742643395376853000,9.25885302734375,9.56505012512207,0.6679500341415405,1.9560000896453857
1742643395392745200,9.2747451171875,9.469050407409668,0.6289500594139099,2.0329501628875732
1742643395408638500,9.290638427734375,9.412050247192383,0.5910000205039978,2.3010001182556152
1742643395424531700,9.30653173828125,9.469050407409668,0.5910000205039978,2.5500001907348633
1742643395440424400,9.322424560546875,9.56505012512207,0.6100500226020813,2.77905011177063
1742643395456317200,9.338317138671876,9.297000885009766,0.49500003457069397,3.220050096511841
1742643395472211000,9.3542109375,9.163050651550293,0.2460000067949295,3.736950159072876
1742643395488105500,9.37010546875,9.009000778198242,0.13199999928474426,3.9280502796173096
1742643395504000000,9.386,8.683950424194336,0.32295000553131104,4.138950347900391
1742643395519893800,9.401893798828125,8.089950561523438,0.6490500569343567,4.465050220489502
1742643395535787800,9.417787841796875,7.152000427246094,1.0890001058578491,5.038950443267822
1742643395551680500,9.433680419921876,6.309000492095947,1.5100500583648682,5.632950305938721
1742643395567572200,9.449572265625,5.658000469207764,1.7209501266479492,6.244950294494629
1742643395583465700,9.4654658203125,5.54295015335083,1.7400001287460327,6.8580002784729
1742643395599361000,9.481361083984375,5.754000186920166,1.7209501266479492,7.240950107574463
1742643395615254800,9.4972548828125,6.1180500984191895,1.6249500513076782,7.414050579071045
1742643395631150600,9.513150634765625,6.40500020980835,1.5289500951766968,7.548000335693359
1742643395647046100,9.529046142578125,6.69195032119751,1.3380000591278076,7.681950569152832
1742643395662939400,9.544939453125,6.826050281524658,1.1269500255584717,7.987950325012207
1742643395678832600,9.56083251953125,6.5970001220703125,1.0120500326156616,8.256000518798828
1742643395694725600,9.5767255859375,6.156000137329102,1.1269500255584717,8.485950469970703
1742643395710619000,9.592618896484375,5.8120503425598145,1.2799500226974487,8.409000396728516
1742643395726510300,9.60851025390625,5.485950469970703,1.3380000591278076,8.10300064086914
1742643395742401000,9.624401123046875,5.236950397491455,1.3380000591278076,7.738950252532959
1742643395758292000,9.6402919921875,5.314050197601318,1.3950001001358032,7.452000141143799
1742643395774182400,9.656182373046875,5.773050308227539,1.4719500541687012,6.991950511932373
1742643395790074000,9.67207421875,6.826050281524658,1.2799500226974487,6.552000522613525
1742643395805965800,9.6879658203125,7.72605037689209,1.0120500326156616,5.977050304412842
1742643395821857800,9.70385791015625,8.263050079345703,0.8020500540733337,5.230950355529785
1742643395837750300,9.719750244140625,8.052000045776367,0.6490500569343567,4.713000297546387
1742643395853643000,9.73564306640625,7.591950416564941,0.6100500226020813,4.6180500984191895
1742643395869534700,9.75153466796875,7.591950416564941,0.7440000176429749,4.560000419616699
1742643395885426400,9.767426513671875,7.936950206756592,0.8970000147819519,4.138950347900391
1742643395901317000,9.783317138671874,8.491950035095215,1.0120500326156616,3.430950164794922
1742643395917208800,9.799208740234375,9.067049980163574,0.8970000147819519,2.6650500297546387
1742643395933100300,9.815100341796875,9.661050796508789,0.6289500594139099,2.1280500888824463
1742643395948991200,9.8309912109375,10.312050819396973,0.5719500184059143,1.8790501356124878
1742643395964883500,9.846883544921875,10.540950775146484,0.49500003457069397,1.7650500535964966
1742643395980777000,9.86277685546875,10.177950859069824,0.2850000262260437,1.5349500179290771
1742643395996670500,9.87867041015625,9.430950164794922,0.16995000839233398,1.0939500331878662
1742643396012562400,9.8945625,9.067049980163574,0.226950004696846,0.4819500148296356
1742643396028452400,9.910452392578126,9.412050247192383,0.40005001425743103,-0.09195000678300858
1742643396044343300,9.92634326171875,10.13895034790039,0.6100500226020813,-0.4939500093460083
1742643396060235800,9.94223583984375,10.828950881958008,0.8020500540733337,-0.820050060749054
1742643396076128000,9.9581279296875,11.154000282287598,0.7060500383377075,-0.9340500235557556
1742643396092019500,9.97401953125,11.03895092010498,0.5719500184059143,-0.8770500421524048
1742643396107912000,9.989911865234374,10.828950881958008,0.43800002336502075,-0.7999500632286072
1742643396123803100,10.00580322265625,10.599000930786133,0.45705002546310425,-0.8770500421524048
1742643396139695000,10.021695068359374,10.273050308227539,0.49500003457069397,-0.9919500350952148
1742643396155587000,10.037587158203126,9.814050674438477,0.5530500411987305,-0.9540000557899475
1742643396171479300,10.053479248046875,9.430950164794922,0.5910000205039978,-0.7999500632286072
1742643396187371800,10.069371826171874,9.201000213623047,0.6289500594139099,-0.7050000429153442
1742643396203264500,10.085264404296876,9.238950729370117,0.6289500594139099,-0.7999500632286072
1742643396219155000,10.101155029296875,9.487950325012207,0.6289500594139099,-0.8770500421524048
1742643396235047700,10.117047607421876,9.832950592041016,0.5910000205039978,-0.9150000214576721
1742643396250939100,10.132939208984375,9.94800090789795,0.49500003457069397,-0.8770500421524048
1742643396266830600,10.14883056640625,10.005000114440918,0.41895002126693726,-0.8959500193595886
1742643396282723300,10.164723388671876,9.985950469970703,0.40005001425743103,-0.8959500193595886
1742643396298615300,10.180615234375,9.928950309753418,0.43800002336502075,-0.973050057888031
1742643396314507300,10.19650732421875,9.775050163269043,0.4759500324726105,-1.0110000371932983
1742643396330400000,10.21239990234375,9.60300064086914,0.41895002126693726,-1.0300500392913818
1742643396354238500,10.236238525390625,9.622050285339355,0.361050009727478,-1.1260499954223633
1742643396370130000,10.2521298828125,9.795000076293945,0.34200000762939453,-1.1640000343322754
1742643396386023700,10.268023681640624,9.871050834655762,0.45705002546310425,-1.144950032234192
1742643396401917700,10.283917724609376,9.909000396728516,0.534000039100647,-1.1830500364303589
1742643396417810000,10.299809814453125,9.814050674438477,0.5910000205039978,-1.297950029373169
1742643396433701400,10.315701416015624,9.661050796508789,0.6289500594139099,-1.4130001068115234
1742643396449593300,10.33159326171875,9.546000480651855,0.6100500226020813,-1.4899500608444214
1742643396465487600,10.347487548828125,9.58395004272461,0.5910000205039978,-1.5090000629425049
1742643396481380000,10.363380126953125,9.56505012512207,0.5140500068664551,-1.5280500650405884
1742643396497272600,10.3792724609375,9.679950714111328,0.2850000262260437,-1.4520000219345093
1742643396513167600,10.395167724609376,10.101000785827637,0.036000002175569534,-1.39395010471344
1742643396529062100,10.411062255859376,9.85200023651123,-0.021000001579523087,-1.91100013256073
1742643396544956000,10.426955810546875,9.220050811767578,0.07395000010728836,-2.581050157546997
1742643396560848100,10.44284814453125,8.836950302124023,0.2659500241279602,-2.8879501819610596
1742643396576742100,10.4587421875,8.665050506591797,0.40005001425743103,-3.1369502544403076
1742643396592636400,10.474636474609374,8.665050506591797,0.534000039100647,-3.366000175476074
1742643396608531000,10.490531005859374,8.855999946594238,0.6289500594139099,-3.6349501609802246
1742643396624424400,10.506424560546876,8.87505054473877,0.5910000205039978,-4.03695011138916
1742643396640316700,10.522316650390625,8.779950141906738,0.5530500411987305,-4.420050144195557
1742643396656208600,10.538208740234374,8.626049995422363,0.5140500068664551,-4.840950012207031
1742643396672100900,10.554100830078125,8.358000755310059,0.4759500324726105,-5.338950157165527
1742643396687993600,10.56999365234375,8.204999923706055,0.534000039100647,-5.797950267791748
1742643396703885600,10.585885498046874,7.99500036239624,0.6289500594139099,-6.1620001792907715
1742643396719778800,10.60177880859375,7.765050411224365,0.6679500341415405,-6.4110002517700195
1742643396735669500,10.61766943359375,7.381950378417969,0.6100500226020813,-6.679050445556641
1742643396751562500,10.6335625,7.342950344085693,0.5910000205039978,-6.909000396728516
1742643396767456500,10.64945654296875,7.458000183105469,0.5530500411987305,-7.120050430297852
1742643396783349000,10.665348876953125,7.438950538635254,0.4759500324726105,-7.234950542449951
1742643396799241000,10.681240966796874,7.342950344085693,0.34200000762939453,-7.254000186920166
1742643396815133000,10.6971328125,7.03695011138916,0.2460000067949295,-7.330050468444824
1742643396831024600,10.713024658203125,6.78795051574707,0.2460000067949295,-7.3690505027771
1742643396846918100,10.728918212890624,6.8460001945495605,0.2460000067949295,-7.234950542449951
1742643396862812700,10.744812744140624,6.922050476074219,0.2460000067949295,-7.1010003089904785
1742643396878706400,10.76070654296875,6.960000514984131,0.41895002126693726,-7.120050430297852
1742643396894600000,10.776599853515625,7.189950466156006,0.5530500411987305,-7.234950542449951
1742643396910493000,10.792492919921875,7.36305046081543,0.6289500594139099,-7.195950508117676
1742643396926385000,10.808385009765624,7.612050533294678,0.7440000176429749,-7.04295015335083
1742643396942275800,10.82427587890625,8.052000045776367,0.8020500540733337,-6.679050445556641
1742643396958166500,10.84016650390625,8.550000190734863,0.7249500155448914,-6.277050495147705
1742643396982003700,10.864003662109376,8.895000457763672,0.2850000262260437,-5.607000350952148
1742643396997897200,10.879897216796875,8.646000862121582,-0.07800000160932541,-5.109000205993652
1742643397013788700,10.89578857421875,8.397000312805176,-0.04005000367760658,-4.458000183105469
1742643397029679600,10.9116796875,8.338950157165527,-0.28905001282691956,-3.4240500926971436
1742643397045571600,10.927571533203125,8.263050079345703,-0.364950031042099,-2.313000202178955
1742643397061462800,10.943462890625,8.301000595092773,-0.364950031042099,-1.3560000658035278
1742643397077355800,10.959355712890625,8.70300006866455,-0.25005000829696655,-0.8959500193595886
1742643397093249300,10.975249267578125,9.028950691223145,-0.021000001579523087,-0.7999500632286072
1742643397109141500,10.9911416015625,9.33495044708252,0.2460000067949295,-0.7050000429153442
1742643397125034500,11.007034423828125,9.756000518798828,0.37995001673698425,-0.6660000085830688
1742643397140928300,11.02292822265625,10.063050270080566,0.45705002546310425,-0.7810500264167786
1742643397156821800,11.03882177734375,10.044000625610352,0.41895002126693726,-0.7429500222206116
1742643397172715500,11.054715576171875,10.044000625610352,0.32295000553131104,-0.5320500135421753
1742643397188609300,11.070609375,10.101000785827637,0.18900001049041748,-0.39795002341270447
1742643397204503800,11.08650390625,10.234950065612793,0.16995000839233398,-0.283050000667572
1742643397220400400,11.102400390625,10.216050148010254,0.11205000430345535,-0.2070000171661377
1742643397236292900,11.11829296875,10.234950065612793,0.05505000427365303,-0.34095001220703125
1742643397252186400,11.134186279296875,10.350000381469727,0.09300000220537186,-0.47505003213882446
1742643397268078800,11.150078857421875,10.350000381469727,0.11205000430345535,-0.5130000114440918
1742643397283970600,11.165970458984376,10.13895034790039,0.13199999928474426,-0.37905001640319824
1742643397299862300,11.1818623046875,10.005000114440918,0.20805001258850098,-0.2070000171661377
1742643397315754500,11.19775439453125,9.85200023651123,0.34200000762939453,-0.1489500105381012
1742643397331646200,11.213646240234375,9.718050003051758,0.4759500324726105,-0.22605000436306
1742643397347538400,11.229538330078125,9.699000358581543,0.6100500226020813,-0.322050005197525
1742643397363430400,11.245430419921876,10.177950859069824,0.8970000147819519,-0.41700002551078796
1742643397379323000,11.261322998046875,10.924050331115723,0.687000036239624,-0.13005000352859497
1742643397395214600,11.277214599609374,11.785950660705566,0.7249500155448914,-0.283050000667572
1742643397411106300,11.293106201171875,11.652000427246094,0.687000036239624,-0.16905000805854797
1742643397426999000,11.3089990234375,10.924050331115723,0.7830000519752502,-0.34095001220703125
1742643397442892800,11.324892822265625,10.120050430297852,0.8209500312805176,-0.4939500093460083
1742643397458785300,11.340785400390626,9.546000480651855,0.9550500512123108,-0.41700002551078796
1742643397474678500,11.356678466796875,9.297000885009766,1.1269500255584717,-0.2639999985694885
1742643397490573600,11.372573486328125,9.220050811767578,1.3759500980377197,-0.5899500250816345
1742643397506467000,11.388467041015625,9.430950164794922,1.5679501295089722,-0.7429500222206116
1742643397522362000,11.404362060546875,9.909000396728516,1.7209501266479492,-0.7999500632286072
1742643397538257000,11.4202568359375,10.387950897216797,1.7779500484466553,-0.7620000243186951
1742643397554149400,11.4361494140625,10.350000381469727,1.9120501279830933,-0.6469500064849854
1742643397570042000,11.4520419921875,9.909000396728516,2.257050037384033,-0.41700002551078796
1742643397585933300,11.467933349609375,9.354000091552734,2.697000026702881,-0.24495001137256622
1742643397601825000,11.483824951171876,9.028950691223145,3.2719502449035645,-0.2070000171661377
1742643397617717500,11.499717529296875,9.33495044708252,3.865950107574463,-0.5320500135421753
1742643397633611500,11.515611572265625,9.31605052947998,4.2870001792907715,-0.8959500193595886
1742643397649503700,11.531503662109374,8.79900074005127,4.344000339508057,-0.9540000557899475
1742643397665396200,11.547396240234375,8.7610502243042,4.095000267028809,-1.0879501104354858
1742643397681289700,11.563289794921875,8.51205062866211,3.979950189590454,-0.9540000557899475
1742643397697183000,11.579182861328125,8.301000595092773,3.979950189590454,-0.7999500632286072
1742643397713075700,11.59507568359375,7.99500036239624,4.0759501457214355,-0.7429500222206116
1742643397728968700,11.61096875,7.956000328063965,4.249050140380859,-0.7999500632286072
1742643397744862000,11.626862060546875,7.746000289916992,4.249050140380859,-0.7240500450134277
1742643397760754700,11.642754638671875,8.032950401306152,4.228950023651123,-1.0110000371932983
1742643397776647700,11.658647705078126,8.128950119018555,4.153050422668457,-0.8580000400543213
1742643397792538400,11.674538330078125,7.746000289916992,4.038000106811523,-0.5899500250816345
1742643397808432400,11.690432373046875,7.516050338745117,4.095000267028809,-0.41700002551078796
1742643397824324400,11.706324462890626,7.075050354003906,4.190999984741211,-0.37905001640319824
1742643397840217600,11.722217529296875,6.558000087738037,4.114950180053711,-0.39795002341270447
1742643397856109000,11.738109130859375,6.8460001945495605,3.8460001945495605,-0.7429500222206116
1742643397872000300,11.754000244140625,6.979950428009033,3.424950122833252,-0.8580000400543213
1742643397887891200,11.76989111328125,7.132950305938721,2.9659502506256104,-1.1260499954223633
1742643397903781400,11.785781494140625,8.646000862121582,2.659050226211548,-1.5660001039505005
1742643397919672800,11.8016728515625,10.828950881958008,2.697000026702881,-2.1030001640319824
1742643397935562500,11.8175625,12.609000205993652,2.7550501823425293,-2.581050157546997
1742643397951452400,11.833452392578126,12.283950805664062,3.100050210952759,-2.599950075149536
1742643397967344400,11.849344482421875,11.03895092010498,3.0799500942230225,-2.8879501819610596
1742643397983236400,11.865236328125,10.599000930786133,2.7739500999450684,-3.2130000591278076
1742643397999127300,11.881127197265625,10.216050148010254,3.38700008392334,-3.4429502487182617
1742643398015019300,11.897019287109375,10.063050270080566,3.7510502338409424,-3.9409501552581787
1742643398030910200,11.91291015625,10.02405071258545,3.7320001125335693,-4.152000427246094
1742643398046802400,11.928802490234375,10.426050186157227,3.865950107574463,-4.171050071716309
1742643398062694400,11.9446943359375,10.579950332641602,4.114950180053711,-4.764000415802002
1742643398078586400,11.96058642578125,8.301000595092773,3.5779502391815186,-4.458000183105469
1742643398094477600,11.9764775390625,8.089950561523438,3.406050205230713,-4.342950344085693
1742643398110369500,11.99236962890625,8.895000457763672,3.2149500846862793,-4.246950149536133
1742643398126261800,12.00826171875,10.981950759887695,3.7320001125335693,-4.113000392913818
1742643398142154000,12.024154052734374,13.701000213623047,3.0040502548217773,-0.34095001220703125
1742643398158046200,12.040046142578126,13.318050384521484,2.7169501781463623,-3.3859500885009766
1742643398173937700,12.055937744140625,10.981950759887695,1.5289500951766968,-8.479050636291504
1742643398189829000,12.0718291015625,15.003000259399414,0.7830000519752502,-10.891950607299805
1742643398205721300,12.087721435546875,20.710050582885742,0.9169500470161438,-24.316051483154297
1742643398221616600,12.10361669921875,18.02895164489746,-6.225000381469727,-0.5130000114440918
1742643398237509600,12.119509521484375,15.634950637817383,-13.578001022338867,26.295001983642578
1742643398253401600,12.135401611328126,2.1160500049591064,-18.001951217651367,39.5650520324707
1742643398269294600,12.151294677734375,-15.232050895690918,-18.97800064086914,39.5650520324707
1742643398285186800,12.167186767578125,-25.4580020904541,-24.01500129699707,39.5650520324707
1742643398301080600,12.18308056640625,-23.352001190185547,-31.195051193237305,36.634952545166016
1742643398316971800,12.1989716796875,-9.756000518798828,-30.525001525878906,9.50100040435791
1742643398332860200,12.214860107421876,22.452001571655273,-24.55095100402832,-22.209001541137695
1742643398348747800,12.230747802734374,39.610050201416016,-13.234050750732422,-38.85000228881836
1742643398364640500,12.246640625,39.610050201416016,-3.2569501399993896,-38.85000228881836
1742643398380532200,12.2625322265625,39.610050201416016,5.800050258636475,-38.85000228881836
1742643398396428000,12.278427978515625,36.948001861572266,6.526950359344482,-38.85000228881836
1742643398412321800,12.29432177734375,26.338951110839844,-13.080000877380371,-38.85000228881836
1742643398428212200,12.310212158203125,16.650001525878906,-32.919002532958984,-38.85000228881836
1742643398444105200,12.326105224609375,25.861051559448242,-39.085052490234375,-9.26400089263916
1742643398459996700,12.34199658203125,7.477950572967529,-39.085052490234375,39.5650520324707
1742643398475890700,12.357890625,-25.648950576782227,-39.085052490234375,39.5650520324707
1742643398491783400,12.373783447265625,-38.80500030517578,-38.989051818847656,39.5650520324707
1742643398507673600,12.389673583984376,-38.80500030517578,-31.464000701904297,39.5650520324707
1742643398523565800,12.40556591796875,-35.41604995727539,-32.7660026550293,39.5650520324707
1742643398539456300,12.421456298828126,18.852001190185547,-39.085052490234375,39.393001556396484
1742643398555343000,12.437343017578126,39.610050201416016,-39.085052490234375,-4.39995002746582
1742643398571232500,12.453232421875,39.610050201416016,-34.85295104980469,-38.85000228881836
1742643398587129300,12.46912939453125,27.71805191040039,-26.025001525878906,-38.85000228881836
1742643398603021600,12.485021484375,-5.160000324249268,-14.47800064086914,-38.85000228881836
1742643398618913300,12.500913330078125,-10.84695053100586,-11.434050559997559,-38.85000228881836
1742643398634808600,12.51680859375,-3.550950050354004,-13.96095085144043,-38.448001861572266
1742643398650700500,12.532700439453125,3.3600001335144043,-10.936050415039062,-16.062000274658203
1742643398666595000,12.548594970703125,11.191950798034668,-7.336050510406494,1.5919500589370728
1742643398682489000,12.564489013671874,14.332950592041016,-3.085050106048584,14.632950782775879
1742643398698382800,12.5803828125,12.514050483703613,-0.07800000160932541,24.60900115966797
1742643398714274600,12.596274658203125,8.052000045776367,1.683000087738037,30.756000518798828
1742643398730167800,12.612167724609375,4.567049980163574,1.5100500583648682,29.338951110839844
1742643398746059500,12.6280595703125,5.448000431060791,2.428950071334839,24.5710506439209
1742643398761951000,12.643950927734375,11.154000282287598,2.7169501781463623,18.25200080871582
1742643398777841700,12.659841552734376,15.481950759887695,1.5289500951766968,11.052000999450684
1742643398793733400,12.6757333984375,17.01405143737793,-0.0019500000635161996,2.2240500450134277
1742643398809620500,12.691620361328125,14.083950996398926,0.8400000333786011,-5.26200008392334
1742643398825511400,12.707511474609374,9.391950607299805,3.118950128555298,-8.11500072479248
1742643398841403100,12.723403076171875,6.3670501708984375,4.5169501304626465,-6.277050495147705
1742643398857293000,12.73929296875,5.716050148010254,3.424950122833252,-1.7200500965118408
1742643398873184800,12.755184814453125,6.520050525665283,2.5630500316619873,2.26200008392334
1742643398889075000,12.771074951171874,7.975050449371338,1.7590501308441162,3.6409502029418945
1742643398904966000,12.7869658203125,9.028950691223145,1.7970000505447388,2.3959500789642334
1742643398920855600,12.80285546875,9.795000076293945,2.5249500274658203,0.25200000405311584
1742643398936746500,12.81874658203125,9.201000213623047,2.677950143814087,-1.3170000314712524
1742643398952636400,12.834636474609376,8.281949996948242,2.3530499935150146,-1.3369500637054443
1742643398968527000,12.850527099609375,8.014050483703613,2.677950143814087,-1.0300500392913818
1742643398984418800,12.866418701171876,8.971050262451172,2.8120501041412354,-0.283050000667572
1742643399000310000,12.88231005859375,10.234950065612793,2.5630500316619873,-0.05400000140070915
1742643399016203000,12.898203125,13.240950584411621,1.5870001316070557,0.8260500431060791
1742643399032094000,12.914093994140625,10.216050148010254,3.157050132751465,1.1710500717163086
1742643399047986000,12.92998583984375,9.814050674438477,2.2759501934051514,1.420050024986267
1742643399063877600,12.945877685546876,10.312050819396973,1.7020500898361206,1.6110000610351562
1742643399079771000,12.96177099609375,9.718050003051758,2.0269501209259033,1.0369499921798706
1742643399095665200,12.9776650390625,7.534950256347656,2.3340001106262207,1.0939500331878662
1742643399111558000,12.993557861328124,7.516050338745117,2.2950000762939453,0.7300500273704529
1742643399127450600,13.00945068359375,8.932950019836426,2.2759501934051514,0.8449500203132629
1742643399143341600,13.025341552734375,9.277950286865234,3.0229501724243164,-0.034050002694129944
1742643399159235800,13.04123583984375,9.028950691223145,2.428950071334839,-1.0110000371932983
1742643399175129900,13.0571298828125,9.756000518798828,3.0040502548217773,-1.5280500650405884
1742643399191022000,13.07302197265625,9.795000076293945,2.8510501384735107,-1.91100013256073
1742643399206914000,13.0889140625,10.4839506149292,2.677950143814087,-1.6050000190734863
1742643399222805500,13.104805419921876,10.867050170898438,2.677950143814087,-1.2030000686645508
1742643399238697500,13.120697509765625,10.618050575256348,2.9659502506256104,-0.30300000309944153
1742643399254590000,13.13658984375,10.981950759887695,3.5020501613616943,-1.4899500608444214
1742643399270482400,13.152482421875,10.369050025939941,3.2910001277923584,-1.0690500736236572
1742643399286374700,13.168374755859375,9.450000762939453,2.908050060272217,-1.4130001068115234
1742643399302264600,13.1842646484375,9.736950874328613,2.7169501781463623,-2.1409502029418945
1742643399318156300,13.20015625,9.507000923156738,2.4870002269744873,-2.044950008392334
1742643399334047700,13.2160478515625,9.142950057983398,2.86995005607605,-2.064000129699707
1742643399349939500,13.231939453125,9.12405014038086,3.0420000553131104,-2.275050163269043
1742643399365831400,13.24783154296875,9.469050407409668,2.908050060272217,-2.083050012588501
1742643399381722400,13.263722412109376,10.618050575256348,2.7739500999450684,-2.026050090789795
1742643399397613800,13.27961376953125,12.034950256347656,2.428950071334839,-2.007000207901001
1742643399413504500,13.29550439453125,12.648000717163086,1.8169500827789307,-1.7200500965118408
1742643399429396500,13.311396484375,11.632950782775879,1.051050066947937,-0.7050000429153442
1742643399445289200,13.327289306640624,9.238950729370117,0.4759500324726105,0.36705002188682556
1742643399461183500,13.34318359375,8.51205062866211,-0.15495000779628754,0.8070000410079956
1742643399477075200,13.3590751953125,9.220050811767578,-0.6139500141143799,1.055999994277954
1742643399492967400,13.374967529296875,10.101000785827637,-0.4420500099658966,1.0939500331878662
1742643399508858600,13.390858642578126,9.832950592041016,-0.4230000078678131,0.9409500360488892
1742643399524747300,13.406747314453124,10.944000244140625,0.13199999928474426,0.3859500288963318
1742643399540637200,13.42263720703125,9.526050567626953,0.34200000762939453,0.9409500360488892
1742643399556527900,13.43852783203125,7.707000255584717,0.361050009727478,0.9790500402450562
1742643399572420600,13.454420654296875,7.516050338745117,0.5530500411987305,0.5959500074386597
1742643399588311000,13.47031103515625,8.014050483703613,2.7930002212524414,-1.6810500621795654
1742643399604201700,13.48620166015625,7.401000499725342,3.712050199508667,-3.4050002098083496
1742643399620092200,13.502092041015626,6.826050281524658,3.118950128555298,-4.093950271606445
1742643399635984400,13.517984375,7.573050498962402,1.8550500869750977,-3.3859500885009766
1742643399651875300,13.533875244140624,9.58395004272461,1.4140501022338867,-2.6770501136779785
1742643399667766800,13.549766845703125,11.058000564575195,0.7440000176429749,-1.9300501346588135
1742643399683658500,13.565658447265625,13.146000862121582,1.3950001001358032,-3.309000253677368
1742643399699552000,13.581552001953124,12.361050605773926,1.7209501266479492,-1.1069999933242798
1742643399715445200,13.5974453125,13.605000495910645,-0.05895000323653221,-0.7240500450134277
1742643399731336700,13.613336669921875,12.973051071166992,-0.5380499958992004,-2.581050157546997
1742643399747227100,13.62922705078125,9.412050247192383,-0.5760000348091125,-2.734950065612793
1742643399763115800,13.64511572265625,8.434950828552246,1.1080501079559326,-3.022050142288208
1742643399779006200,13.661006103515625,8.818050384521484,1.7970000505447388,-3.864000082015991
1742643399794899200,13.676899169921874,8.683950424194336,-0.27000001072883606,-0.7050000429153442
1742643399810787600,13.69278759765625,10.197000503540039,0.5140500068664551,-1.6810500621795654
1742643399826678300,13.70867822265625,11.805000305175781,0.7060500383377075,-1.1069999933242798
1742643399842569000,13.72456884765625,13.336950302124023,1.0320000648498535,-2.1600000858306885
1742643399858460700,13.740460693359376,13.146000862121582,0.534000039100647,-2.3710501194000244
1742643399874354200,13.756354248046875,12.016050338745117,-0.921000063419342,-0.7050000429153442
1742643399890247000,13.772246826171875,8.836950302124023,-1.5720000267028809,0.07905000448226929
1742643399906139000,13.788138916015624,6.442950248718262,-2.4910500049591064,-1.2600001096725464
1742643399922033200,13.804033203125,8.550000190734863,-0.021000001579523087,1.2859500646591187
1742643399937922000,13.819922119140625,5.734950065612793,2.9659502506256104,-0.30300000309944153
1742643399953816800,13.83581689453125,2.575050115585327,2.1610500812530518,1.6500000953674316
1742643399969709000,13.851708984375,4.050000190734863,3.424950122833252,0.9600000381469727
1742643399985599000,13.867598876953124,6.538950443267822,3.8460001945495605,0.13695000112056732
1742643400001490400,13.883490478515625,10.005000114440918,4.555050373077393,-1.1069999933242798
1742643400017383000,13.8993828125,12.15000057220459,4.000050067901611,-2.083050012588501
1742643400033273600,13.915273681640626,11.958000183105469,2.8510501384735107,-1.1830500364303589
1742643400049163800,13.931163818359375,10.044000625610352,2.4870002269744873,-0.34095001220703125
1742643400065055700,13.9470556640625,9.85200023651123,2.697000026702881,1.152000069618225
1742643400080947200,13.962947265625,9.967050552368164,3.138000249862671,0.8650500178337097
1742643400096840200,13.978840087890624,10.656000137329102,2.5830001831054688,1.7839500904083252
1742643400112732200,13.994732177734376,11.230950355529785,2.6020500659942627,1.7839500904083252
1742643400128624600,14.010624755859375,10.579950332641602,2.8510501384735107,2.3580000400543213
1742643400144517000,14.02651708984375,10.081950187683105,2.9659502506256104,2.052000045776367
1742643400160410400,14.042410400390626,9.238950729370117,3.2719502449035645,1.8990000486373901
1742643400176302800,14.058302734375,8.895000457763672,3.406050205230713,1.9939501285552979
1742643400192196000,14.074196044921875,8.971050262451172,3.8269500732421875,2.1090002059936523
1742643400208090400,14.09009033203125,8.263050079345703,3.7699501514434814,3.6030001640319824
1742643400239877600,14.121877685546876,7.687950134277344,3.2719502449035645,4.062000274658203
1742643400255770400,14.137770263671875,6.712050437927246,3.2719502449035645,2.511000156402588
1742643400271663000,14.1536630859375,6.69195032119751,3.8269500732421875,1.3429501056671143
1742643400287555600,14.1695556640625,6.558000087738037,4.249050140380859,1.9369500875473022
1742643400303448800,14.18544873046875,6.807000160217285,3.7890002727508545,2.8180501461029053
1742643400319341800,14.201341796875,8.377950668334961,3.3100502490997314,2.9710500240325928
1742643400335234600,14.217234619140624,9.736950874328613,2.7169501781463623,1.6879501342773438
1742643400351128300,14.23312841796875,10.618050575256348,2.257050037384033,3.238950252532959
1742643400367022600,14.249022705078126,11.728950500488281,2.3340001106262207,3.9090001583099365
1742643400382917600,14.264917724609376,12.495000839233398,2.449050188064575,4.369050025939941
1742643400398810600,14.280810546875,14.161050796508789,2.5630500316619873,4.675050258636475
1742643400414704000,14.2967041015625,16.861051559448242,3.3289501667022705,3.6600000858306885
1742643400430598000,14.312597900390625,20.020050048828125,4.153050422668457,4.387950420379639
1742643400446490000,14.328489990234376,21.51405143737793,5.722950458526611,9.75
1742643400462384000,14.344384033203125,22.432950973510742,8.098050117492676,17.332950592041016
1742643400478277600,14.360277587890625,22.720050811767578,9.687000274658203,20.55000114440918
1742643400494170600,14.376170654296875,21.916051864624023,9.418950080871582,21.1429500579834
1742643400510064400,14.392064453125,17.626951217651367,5.761050224304199,21.546001434326172
1742643400525958700,14.407958740234376,8.491950035095215,-4.176000118255615,20.052000045776367
1742643400541853000,14.42385302734375,-9.220050811767578,-23.325000762939453,7.069050312042236
1742643400557743400,14.439743408203125,-38.25,-37.323001861572266,-31.707000732421875
1742643400573638000,14.455637939453124,-38.767051696777344,-38.29995346069336,-38.79195022583008
1742643400589531600,14.47153173828125,-37.98105239868164,-39.085052490234375,-38.85000228881836
1742643400605427000,14.487427001953124,-11.862000465393066,-39.085052490234375,-35.020050048828125
1742643400621318000,14.50331787109375,8.224050521850586,-34.354949951171875,-15.909000396728516
1742643400637212000,14.5192119140625,21.859050750732422,-12.103950500488281,39.5650520324707
1742643400653101600,14.5351015625,29.748001098632812,32.1109504699707,39.487953186035156
1742643400668994600,14.55099462890625,39.53295135498047,39.27195358276367,39.5650520324707
1742643400684889300,14.566889404296875,39.59100341796875,37.281002044677734,39.5650520324707
1742643400700782300,14.5827822265625,39.610050201416016,15.106050491333008,29.01405143737793
1742643400716679200,14.59867919921875,18.25800132751465,-12.736050605773926,29.01405143737793
1742643400732574000,14.614573974609375,-18.487951278686523,-37.72500228881836,0.673050045967102
1742643400748464600,14.630464599609375,-38.80500030517578,-39.066001892089844,-34.50300216674805
1742643400764356400,14.6463564453125,-38.80500030517578,-39.085052490234375,-38.79195022583008
1742643400788196000,14.670196044921875,-10.50195026397705,-39.085052490234375,-38.85000228881836
1742643400804093700,14.68609375,-2.6899502277374268,-39.085052490234375,-29.562002182006836
1742643400819990800,14.70199072265625,-4.222050189971924,-19.49505043029785,17.428951263427734
1742643400835884300,14.71788427734375,-3.1300501823425293,18.649051666259766,39.5650520324707
1742643400859721500,14.741721435546875,37.73295211791992,39.33000183105469,39.5650520324707
1742643400875616500,14.757616455078125,39.53295135498047,32.16794967651367,39.43095016479492
1742643400891509200,14.77350927734375,39.610050201416016,11.563950538635254,27.003002166748047
1742643400907406600,14.789406494140625,32.505001068115234,-20.260950088500977,20.799001693725586
1742643400923298000,14.805298095703124,-16.285951614379883,-39.085052490234375,-11.830050468444824
1742643400939189000,14.82118896484375,-38.80500030517578,-39.085052490234375,-38.85000228881836
1742643400955082800,14.837082763671875,-38.80500030517578,-39.085052490234375,-38.85000228881836
1742643400970976000,14.85297607421875,-21.838951110839844,-39.085052490234375,-38.85000228881836
1742643400986870300,14.868870361328124,14.02695083618164,-39.085052490234375,-18.934951782226562
1742643401002765000,14.88476513671875,13.146000862121582,-16.317001342773438,39.5650520324707
1742643401026603800,14.908603759765626,19.75200080871582,35.998050689697266,39.5650520324707
1742643401042495500,14.92449560546875,39.610050201416016,32.26395034790039,39.5650520324707
1742643401058389800,14.9403896484375,39.610050201416016,18.571950912475586,19.34295082092285
1742643401074288000,14.9562880859375,24.156002044677734,-0.8059500455856323,6.436950206756592
1742643401090181600,14.972181640625,-14.350950241088867,-9.882000923156738,-8.575050354003906
1742643401106076400,14.988076416015625,-31.2220516204834,-8.695050239562988,-22.707000732421875
1742643401121969400,15.003969482421875,-26.338951110839844,-7.297050476074219,-25.31100082397461
1742643401137861600,15.019861572265626,-16.822050094604492,-9.748050689697266,-21.27105140686035
1742643401153751600,15.03575146484375,4.414050102233887,-8.638050079345703,-10.795950889587402
1742643401169645600,15.0516455078125,13.56705093383789,-4.482000350952148,4.350000381469727
1742643401185536800,15.067536865234375,11.632950782775879,3.3490500450134277,10.72605037689209
1742643401201428700,15.0834287109375,11.03895092010498,15.48900032043457,22.560001373291016
1742643401217320400,15.099320556640626,1.234950065612793,19.816951751708984,20.242950439453125
1742643401233212700,15.115212646484375,1.90500009059906,17.74905014038086,7.336950302124023
1742643401249104600,15.131104736328124,7.516050338745117,11.428950309753418,11.989950180053711
1742643401264996900,15.146996826171875,7.132950305938721,6.661050319671631,13.291950225830078
1742643401280888800,15.162888916015625,5.850000381469727,5.377950191497803,15.648000717163086
1742643401296780300,15.1787802734375,2.824050188064575,4.134000301361084,11.607000350952148
1742643401312674000,15.194674072265625,0.08595000207424164,3.5400002002716064,5.422050476074219
1742643401328565000,15.21056494140625,-0.06599999964237213,3.8269500732421875,1.1130000352859497
1742643401344454700,15.22645458984375,0.16305001080036163,3.922950267791748,-0.5520000457763672
1742643401360346600,15.2423466796875,-0.39195001125335693,4.6120500564575195,-0.322050005197525
1742643401376239000,15.258239013671876,-0.8700000643730164,6.220950126647949,2.0329501628875732
1742643401392130300,15.27413037109375,0.8520000576972961,7.618950366973877,21.487951278686523
1742643401408022500,15.2900224609375,2.728950023651123,9.5149507522583,10.669050216674805
1742643401423913000,15.305912841796875,6.442950248718262,9.208050727844238,8.52405071258545
1742643401439805200,15.32180517578125,7.228950500488281,8.1739501953125,8.409000396728516
1742643401455697700,15.33769775390625,3.6670501232147217,6.183000087738037,9.136950492858887
1742643401471589000,15.353589111328125,2.4600000381469727,6.106050491333008,7.6620001792907715
1742643401487481600,15.369481689453124,1.8480000495910645,5.149050235748291,6.034950256347656
1742643401503376000,15.3853759765625,0.08595000207424164,4.99500036239624,5.383950233459473
1742643401519268000,15.40126806640625,-1.4640001058578491,4.918950080871582,5.479050159454346
1742643401535160600,15.41716064453125,-4.087950229644775,5.685000419616699,3.3349502086639404
1742643401551053800,15.4330537109375,-2.632050037384033,5.646000385284424,4.579050064086914
1742643401566946600,15.448946533203125,-2.8620002269744873,5.991000175476074,4.8480000495910645
1742643401582839000,15.464839111328125,-3.8389501571655273,6.7759504318237305,4.1579999923706055
1742643401598732800,15.48073291015625,-8.989950180053711,7.485000133514404,2.434950113296509
1742643401614625500,15.49662548828125,-2.038950204849243,6.355050086975098,8.122050285339355
1742643401630517500,15.512517578125,-2.7660000324249268,7.255050182342529,7.1260504722595215
1742643401646410000,15.528409912109375,-0.9660000205039978,7.255050182342529,8.236949920654297
1742643401662303700,15.5443037109375,-1.024049997329712,7.5420002937316895,8.944950103759766
1742643401678196000,15.560196044921875,-1.311000108718872,7.8100504875183105,9.673050880432129
1742643401694089700,15.57608984375,-1.024049997329712,7.5610504150390625,10.228050231933594
1742643401709983000,15.59198291015625,-0.6220500469207764,7.332000255584717,10.993950843811035
1742643401725874400,15.60787451171875,-0.028050001710653305,7.426950454711914,11.932950973510742
1742643401741767200,15.62376708984375,-0.583050012588501,7.446000576019287,11.932950973510742
1742643401757659600,15.63965966796875,-1.2529500722885132,6.871950149536133,11.473050117492676
1742643401773551900,15.6555517578125,-1.1959500312805176,6.565950393676758,11.530950546264648
1742643401789443600,15.671443603515625,-0.35295000672340393,6.5460004806518555,12.201000213623047
1742643401805333500,15.68733349609375,1.636950135231018,8.480999946594238,12.391950607299805
1742643401821227300,15.703227294921875,-0.21900001168251038,9.706050872802734,11.281950950622559
1742643401837121000,15.71912109375,-0.9469500184059143,10.051050186157227,11.856000900268555
1742643401853014500,15.7350146484375,-0.5260500311851501,12.13800048828125,12.487950325012207
1742643401868908000,15.750907958984374,-0.2770500183105469,15.220951080322266,15.838951110839844
1742643401884800300,15.76680029296875,-0.7170000076293945,18.43800163269043,17.869050979614258
1742643401900692500,15.7826923828125,-1.9810501337051392,18.76395034790039,18.022050857543945
1742643401916585700,15.798585693359374,-1.6170001029968262,14.473950386047363,17.505001068115234
1742643401932477200,15.814477294921875,1.7899501323699951,8.212050437927246,14.575050354003906
1742643401948368600,15.83036865234375,3.8200502395629883,1.7400001287460327,9.32805061340332
1742643401964262700,15.8462626953125,4.107000350952148,-7.909950256347656,4.291950225830078
1742643401980154000,15.862154052734375,-1.7899501323699951,-21.199951171875,-5.893950462341309
1742643401996045800,15.8780458984375,-10.522050857543945,-31.674001693725586,-22.093950271606445
1742643402011938800,15.893938720703124,-10.540950775146484,-37.3609504699707,-32.64495086669922
1742643402027829800,15.909829833984375,-5.25600004196167,-36.768001556396484,-38.85000228881836
1742643402043723000,15.925722900390625,2.020050048828125,-31.501951217651367,-38.85000228881836
1742643402059614200,15.9416142578125,7.783950328826904,-21.697050094604492,-24.81300163269043
1742643402075508000,15.957508056640625,11.422050476074219,-2.893050193786621,1.4770500659942627
1742643402091398700,15.973398681640624,17.493000030517578,25.63800048828125,39.5650520324707
1742643402107288300,15.989288330078125,15.424050331115723,39.33000183105469,39.5650520324707
1742643402123180300,16.00518017578125,7.765050411224365,39.33000183105469,39.5650520324707
1742643402139073800,16.02107373046875,7.056000232696533,35.78700256347656,39.5650520324707
1742643402154965200,16.03696533203125,11.556000709533691,7.887000560760498,17.887950897216797
1742643402170858000,16.05285791015625,6.865050315856934,-15.072000503540039,-8.11500072479248
1742643402186751700,16.068751708984376,-2.7280502319335938,-36.27000045776367,-24.450000762939453
1742643402202646000,16.08464599609375,-6.997950553894043,-39.04695129394531,-38.77305221557617
1742643402218538200,16.100538330078123,-5.3710503578186035,-39.085052490234375,-38.85000228881836
1742643402234430200,16.11643017578125,3.05400013923645,-39.085052490234375,-32.836952209472656
1742643402250323500,16.132323486328126,7.03695011138916,-28.49505043029785,-14.932050704956055
1742643402266217000,16.148217041015624,18.985950469970703,12.904050827026367,2.9710500240325928
1742643402282106400,16.1641064453125,22.1460018157959,39.33000183105469,39.5650520324707
1742643402297999400,16.179999267578125,1.3309500217437744,39.33000183105469,39.52695083618164
1742643402313893400,16.195893310546875,-7.266000270843506,39.33000183105469,39.5650520324707
1742643402329790000,16.2117900390625,-2.9770500659942627,19.242000579833984,39.373050689697266
1742643402345685800,16.227685791015624,-0.6790500283241272,-7.182000160217285,5.038950443267822
1742643402361577000,16.243576904296877,-3.973050117492676,-25.968000411987305,-19.79595184326172
1742643402377466600,16.259466552734374,2.593950033187866,-38.338050842285156,-36.781951904296875
1742643402393358000,16.275358154296875,2.9200501441955566,-39.085052490234375,-38.83095169067383
1742643402409250300,16.291250244140624,5.00700044631958,-39.085052490234375,-38.332950592041016
1742643402425141000,16.30714111328125,9.277950286865234,-23.785051345825195,-30.96000099182129
1742643402441032000,16.323031982421874,17.818050384521484,14.206050872802734,4.024050235748291
1742643402456921900,16.338921875,14.505001068115234,39.33000183105469,39.5650520324707
1742643402472815600,16.354815673828124,-0.8320500254631042,39.33000183105469,39.5650520324707
1742643402488709400,16.37070947265625,-6.51900053024292,38.467952728271484,39.5650520324707
1742643402504599600,16.386599609375,-3.8959500789642334,20.487001419067383,31.063051223754883
1742643402520489500,16.402489501953124,3.991950273513794,-4.387050151824951,4.0819501876831055
1742643402536379600,16.418379638671876,0.7369500398635864,-24.397951126098633,-21.46200180053711
1742643402552271000,16.43427099609375,-5.599950313568115,-39.085052490234375,-36.762001037597656
1742643402568161800,16.450161865234374,-4.1449503898620605,-39.085052490234375,-37.26000213623047
1742643402584052000,16.466052001953123,-0.41100001335144043,-38.509952545166016,-32.242950439453125
1742643402599942000,16.48194189453125,11.61405086517334,-19.303951263427734,-23.989952087402344
1742643402615833000,16.4978330078125,20.36505126953125,10.108050346374512,11.87505054473877
1742643402631722000,16.513721923828125,16.822050094604492,39.33000183105469,39.5650520324707
1742643402647615200,16.529615234375,-0.6600000262260437,39.310951232910156,39.5650520324707
1742643402663507000,16.5455068359375,-3.781050205230713,39.21495056152344,39.5650520324707
1742643402679397400,16.5613974609375,-3.5899500846862793,22.975950241088867,26.065052032470703
1742643402695286500,16.57728662109375,2.038950204849243,0.09300000220537186,3.793950080871582
1742643402711176400,16.593176513671875,0.5070000290870667,-19.246051788330078,-20.31300163269043
1742643402727068000,16.60906787109375,-1.1959500312805176,-32.8609504699707,-38.85000228881836
1742643402742961200,16.624961181640625,-0.6220500469207764,-38.28105163574219,-38.85000228881836
1742643402758853000,16.64085302734375,10.599000930786133,-32.59305191040039,-38.160003662109375
1742643402774744300,16.656744384765624,15.846000671386719,-15.10995101928711,-28.720050811767578
1742643402790635500,16.672635498046876,19.963050842285156,13.881000518798828,0.34800001978874207
1742643402806525400,16.688525390625,11.881950378417969,39.33000183105469,37.9759521484375
1742643402822420500,16.70442041015625,0.04800000041723251,39.310951232910156,39.50699996948242
1742643402838311400,16.7203115234375,-7.246950149536133,39.33000183105469,39.5650520324707
1742643402854205400,16.736205322265626,-6.40500020980835,28.740001678466797,37.707000732421875
1742643402870098000,16.752097900390623,-0.7939500212669373,9.131999969482422,17.447999954223633
1742643402885991000,16.767990966796877,-0.6600000262260437,-6.819000244140625,-1.0489500761032104
1742643402901882000,16.783882080078126,-2.2110002040863037,-19.840051651000977,-13.822051048278809
1742643402917774000,16.799774169921875,-3.76200008392334,-30.601951599121094,-24.622051239013672
1742643402933665500,16.81566552734375,-1.1959500312805176,-34.43205261230469,-31.783950805664062
1742643402949556000,16.831555908203125,4.816050052642822,-35.178001403808594,-31.822052001953125
1742643402965447400,16.847447509765626,7.82205057144165,-29.970001220703125,-24.7939510345459
1742643402981340400,16.86334033203125,7.861050605773926,-11.164950370788574,-9.379050254821777
1742643402997235700,16.879235595703125,5.199000358581543,18.97395133972168,17.658000946044922
1742643403013128000,16.8951279296875,-2.3449501991271973,39.33000183105469,39.5650520324707
1742643403029022000,16.91102197265625,-17.0710506439209,39.33000183105469,39.5650520324707
1742643403044915500,16.92691552734375,-20.689950942993164,39.33000183105469,39.5650520324707
1742643403060812800,16.942812744140625,-13.777050971984863,25.216951370239258,39.393001556396484
1742643403076704800,16.958704833984374,1.7329500913619995,6.39300012588501,19.324050903320312
1742643403092597200,16.97459716796875,4.681950092315674,-14.842050552368164,-1.0690500736236572
1742643403108489200,16.9904892578125,1.828950047492981,-32.13405227661133,-16.291950225830078
1742643403124380400,17.00638037109375,3.5329501628875732,-39.085052490234375,-33.7369499206543
1742643403140270800,17.022270751953126,3.514050245285034,-39.085052490234375,-38.85000228881836
1742643403156164900,17.038164794921876,12.858000755310059,-39.085052490234375,-38.85000228881836
1742643403172061700,17.054061767578126,17.41604995727539,-38.74005126953125,-33.832950592041016
1742643403187955200,17.069955078125,14.907000541687012,-13.099950790405273,-3.117000102996826
1742643403203845600,17.085845703125,12.552000999450684,29.257051467895508,39.5650520324707
1742643403219741400,17.101741455078123,-10.540950775146484,39.33000183105469,39.54600143432617
1742643403235632000,17.117632080078124,-19.77105140686035,39.33000183105469,39.5650520324707
1742643403251528000,17.13352783203125,-12.628050804138184,35.461952209472656,39.5650520324707
1742643403267419100,17.149419189453123,7.03695011138916,14.51205062866211,31.446001052856445
1742643403283313700,17.165313720703125,9.31605052947998,-9.442049980163574,6.187950134277344
1742643403299205600,17.18120556640625,2.1730501651763916,-35.38905334472656,-11.17905044555664
1742643403315099000,17.197098876953124,-3.0730502605438232,-39.04695129394531,-35.9010009765625
1742643403330994000,17.212993896484374,-1.9810501337051392,-39.085052490234375,-38.81100082397461
1742643403346884900,17.228884765625,7.248000144958496,-39.085052490234375,-38.85000228881836
1742643403362782700,17.24478271484375,9.967050552368164,-39.085052490234375,-33.81405258178711
1742643403378678000,17.260677978515623,5.887950420379639,-22.999950408935547,4.560000419616699
1742643403394570000,17.276570068359376,9.8899507522583,25.67595100402832,39.5650520324707
1742643403410463200,17.292463134765626,-6.366000175476074,39.33000183105469,39.5650520324707
1742643403426356700,17.308356689453124,-16.075050354003906,39.33000183105469,39.5650520324707
1742643403442252800,17.324252685546874,-14.256000518798828,36.59100341796875,39.5650520324707
1742643403458144000,17.34014404296875,6.538950443267822,18.783000946044922,25.12605094909668
1742643403474037800,17.356037841796876,7.342950344085693,-9.021000862121582,-1.3750500679016113
1742643403489932800,17.371932861328126,-4.642950057983398,-33.0910530090332,-22.132951736450195
1742643403505823200,17.3878232421875,-7.72605037689209,-39.085052490234375,-38.85000228881836
1742643403521717000,17.403717041015625,-5.19795036315918,-39.085052490234375,-38.85000228881836
1742643403537609200,17.419609130859374,-0.8700000643730164,-39.085052490234375,-38.79195022583008
1742643403553500000,17.4355,3.2260501384735107,-29.72100067138672,-23.262001037597656
1742643403569393000,17.451392822265625,1.8480000495910645,9.475950241088867,15.054000854492188
1742643403585284000,17.4672841796875,9.31605052947998,39.33000183105469,39.5650520324707
1742643403601181400,17.483181396484376,-4.930050373077393,39.33000183105469,39.5650520324707
1742643403617077500,17.499077392578126,-16.51500129699707,39.33000183105469,39.5650520324707
1742643403632972300,17.51497216796875,-10.540950775146484,21.8470516204834,39.5650520324707
1742643403648865300,17.530865234375,7.918050289154053,0.8400000333786011,21.56505012512207
1742643403664756000,17.546755859375,6.481950283050537,-26.983051300048828,-6.22005033493042
1742643403680648700,17.562648681640624,-8.071050643920898,-39.085052490234375,-34.540950775146484
1742643403696541700,17.578541748046874,-6.481050491333008,-39.085052490234375,-38.81100082397461
1742643403712436200,17.594436279296875,-4.068000316619873,-39.085052490234375,-38.42805099487305
1742643403728327700,17.61032763671875,0.22005000710487366,-39.085052490234375,-22.669050216674805
1742643403744218000,17.626218017578125,2.307000160217285,-16.470001220703125,-0.609000027179718
1742643403760108800,17.64210888671875,21.781951904296875,21.23400115966797,39.5650520324707
1742643403775999200,17.657999267578123,5.332950115203857,39.33000183105469,39.54600143432617
1742643403791894500,17.67389453125,2.07705020904541,39.33000183105469,39.5650520324707
1742643403807789600,17.68978955078125,-11.862000465393066,27.87900161743164,39.5650520324707
1742643403823681800,17.705681884765625,3.5329501628875732,13.632000923156738,37.93695068359375
1742643403839576000,17.721576171875,7.956000328063965,-6.2820000648498535,8.199000358581543
1742643403855467800,17.7374677734375,-0.909000039100647,-22.90395164489746,-19.854000091552734
1742643403871358200,17.753358154296876,8.740950584411621,-31.44405174255371,-38.38995361328125
1742643403887250200,17.769250244140625,-1.90500009059906,-38.66400146484375,-38.7160530090332
1742643403903144700,17.785144775390624,-8.913000106811523,-39.085052490234375,-31.362001419067383
1742643403919040000,17.8010400390625,-8.722050666809082,-35.88705062866211,-9.340950012207031
1742643403934936000,17.81693603515625,-2.3449501991271973,-21.75495147705078,8.926050186157227
1742643403950829600,17.83282958984375,-2.8620002269744873,-1.1700000762939453,14.61405086517334
1742643403966722800,17.848722900390626,-22.546951293945312,21.042001724243164,28.95600128173828
1742643403982613200,17.86461328125,-38.80500030517578,38.79405212402344,39.5650520324707
1742643403998506200,17.88050634765625,-38.767051696777344,39.33000183105469,39.54600143432617
1742643404014400800,17.89640087890625,-23.352001190185547,37.79804992675781,39.5650520324707
1742643404030292200,17.912292236328124,-1.90500009059906,24.661951065063477,36.444000244140625
1742643404046181600,17.928181640625,14.007000923156738,14.608050346374512,20.301000595092773
1742643404062075100,17.9440751953125,21.207000732421875,1.5100500583648682,16.891950607299805
1742643404077970200,17.95997021484375,22.336950302124023,-15.570000648498535,15.246000289916992
1742643404093863000,17.97586279296875,19.636951446533203,-38.75895309448242,5.652000427246094
1742643404109756200,17.991756103515623,19.04400062561035,-39.04695129394531,-22.43895149230957
1742643404125647000,18.007647216796876,25.9950008392334,-39.085052490234375,-38.85000228881836
1742643404141540000,18.0235400390625,8.377950668334961,-39.085052490234375,-38.85000228881836
1742643404157435400,18.039435302734375,-16.38105010986328,-39.085052490234375,-38.85000228881836
1742643404173333500,18.05533349609375,-28.042951583862305,-39.085052490234375,-8.383950233459473
1742643404189230300,18.071230224609376,-21.762001037597656,-39.085052490234375,39.5650520324707
1742643404205121500,18.08712158203125,30.4950008392334,-39.085052490234375,39.54600143432617
1742643404221017000,18.10301708984375,39.45705032348633,-25.1059513092041,39.5650520324707
1742643404236909800,18.118909912109373,39.610050201416016,-7.470000267028809,32.38395309448242
1742643404252803000,18.134802978515626,39.610050201416016,-11.185050964355469,39.5650520324707
1742643404268698600,18.15069873046875,19.503000259399414,-10.111950874328613,14.958001136779785
1742643404284590800,18.1665908203125,-20.3070011138916,-5.4970502853393555,-13.132050514221191
1742643404300482000,18.18248193359375,-38.746952056884766,-0.04005000367760658,-19.297950744628906
1742643404316373000,18.198373046875,-29.40300178527832,1.1460000276565552,-14.109000205993652
1742643404332265500,18.214265380859374,-12.762001037597656,0.6679500341415405,-10.260000228881836
1742643404348157700,18.23015771484375,-0.6409500241279602,1.8169500827789307,-5.18595027923584
1742643404364051200,18.24605126953125,6.730950355529785,3.712050199508667,2.6070001125335693
1742643404379945500,18.261945556640626,7.918050289154053,6.871950149536133,7.414050579071045
1742643404395840000,18.277840087890624,6.673050403594971,7.849050521850586,11.511000633239746
1742643404411733500,18.2937333984375,8.204999923706055,7.273950576782227,12.718050956726074
1742643404427625700,18.309625732421875,15.769050598144531,5.110050201416016,11.703001022338867
1742643404443518000,18.32551806640625,22.893001556396484,4.344000339508057,7.681950569152832
1742643404459410000,18.341409912109373,20.88195037841797,3.118950128555298,5.824050426483154
1742643404475303400,18.357303466796875,14.467050552368164,2.640000104904175,5.00100040435791
1742643404491197700,18.37319775390625,8.434950828552246,2.2759501934051514,6.111000061035156
1742643404507092200,18.38909228515625,6.940950393676758,1.9320000410079956,7.471050262451172
1742643404522986500,18.404986572265624,7.783950328826904,2.5830001831054688,8.485950469970703
1742643404538881000,18.420881103515626,7.72605037689209,2.2380001544952393,6.7819504737854
1742643404554774300,18.436774169921875,8.41604995727539,2.8510501384735107,3.6409502029418945
1742643404570668300,18.452668212890625,9.105000495910645,2.908050060272217,1.7650500535964966
1742643404586562000,18.46856201171875,9.679950714111328,2.908050060272217,2.26200008392334
1742643404602457600,18.48445751953125,9.871050834655762,3.0040502548217773,2.8560001850128174
1742643404618353000,18.500352783203127,9.08595085144043,3.5209500789642334,2.013000011444092
1742643404634246000,18.516245849609376,8.646000862121582,3.7699501514434814,0.5959500074386597
1742643404650138400,18.532138427734374,8.740950584411621,4.7659502029418945,-0.45600003004074097
1742643404666034200,18.5480341796875,8.014050483703613,4.249050140380859,0.5580000281333923
1742643404681927700,18.563927734375,7.765050411224365,4.6120500564575195,0.8650500178337097
1742643404697822000,18.579822021484375,7.99500036239624,4.573950290679932,1.0180500745773315
1742643404713715200,18.595715087890625,9.009000778198242,4.497000217437744,1.3240500688552856
1742643404729608400,18.6116083984375,10.063050270080566,4.6120500564575195,1.7260501384735107
1742643404745501200,18.627501220703124,10.599000930786133,4.344000339508057,1.7650500535964966
1742643404761394400,18.64339453125,10.963050842285156,4.134000301361084,1.0180500745773315
1742643404777287400,18.659287353515627,10.446000099182129,3.90405011177063,0.4050000309944153
1742643404793180700,18.6751806640625,9.795000076293945,3.979950189590454,0.4240500330924988
1742643404809073700,18.69107373046875,9.181950569152832,4.000050067901611,0.7500000596046448
1742643404824967000,18.706966796875,8.550000190734863,3.8269500732421875,0.7110000252723694
1742643404840862500,18.722862548828125,8.032950401306152,3.712050199508667,0.520050048828125
1742643404856757000,18.738757080078123,7.861050605773926,3.636000156402588,0.32805001735687256
1742643404872651500,18.754651611328125,7.765050411224365,3.636000156402588,0.17505000531673431
1742643404888546800,18.770546875,8.70300006866455,3.406050205230713,0.5770500302314758
1742643404904441600,18.786441650390625,9.736950874328613,3.7320001125335693,1.26705002784729
1742643404920337200,18.802337158203127,10.46505069732666,4.5169501304626465,1.9939501285552979
1742643404936232200,18.818232177734377,10.46505069732666,5.377950191497803,2.3580000400543213
1742643404952125700,18.834125732421874,10.981950759887695,5.991000175476074,2.8180501461029053
1742643404968017200,18.85001708984375,11.671051025390625,6.067950248718262,2.9130001068115234
1742643404983908600,18.86590869140625,11.250000953674316,5.722950458526611,2.1859500408172607
1742643404999800800,18.88180078125,8.358000755310059,5.034000396728516,2.6260502338409424
1742643405015694600,18.897694580078124,5.9070000648498535,3.7890002727508545,2.5500001907348633
1742643405031589600,18.913589599609374,6.424050331115723,3.463050127029419,0.6540000438690186
1742643405047484000,18.92948388671875,7.783950328826904,2.640000104904175,-1.3750500679016113
1742643405063378000,18.9453779296875,10.540950775146484,1.6249500513076782,-2.830050230026245
1742643405079274500,18.9612744140625,13.624051094055176,1.4140501022338867,-3.1939501762390137
1742643405095172000,18.977172119140626,15.691950798034668,0.9169500470161438,0.17505000531673431
1742643405111069700,18.993069580078124,15.022050857543945,0.34200000762939453,3.5650501251220703
1742643405126964200,19.008964111328126,13.356000900268555,0.3040500283241272,4.3309502601623535
1742643405142858200,19.024858154296876,13.183950424194336,1.7779500484466553,1.6110000610351562
1742643405158752000,19.040751953125,13.85400104522705,3.2340002059936523,0.7300500273704529
1742643405174643700,19.056643798828127,12.130950927734375,3.444000244140625,3.736950159072876
1742643405190538000,19.0725380859375,11.556000709533691,3.8080501556396484,7.318050384521484
1742643405206432000,19.088431884765626,10.387950897216797,4.171950340270996,9.711000442504883
1742643405222326500,19.104326416015624,7.497000217437744,4.900050163269043,9.520050048828125
1742643405238220000,19.120219970703126,3.973050117492676,5.493000030517578,9.50100040435791
1742643405254114000,19.136114013671875,0.43095001578330994,5.455050468444824,9.003000259399414
1742643405270009000,19.152009033203125,0.18195000290870667,5.626950263977051,8.657999992370605
1742643405285901300,19.1679013671875,0.7750500440597534,4.651050090789795,9.691950798034668
1742643405301794300,19.183794189453124,2.8429501056671143,3.979950189590454,13.618050575256348
1742643405317687600,19.1996875,0.8899500370025635,2.7739500999450684,19.534950256347656
1742643405333582000,19.21558203125,-4.4509501457214355,0.7830000519752502,26.14095115661621
1742643405349476000,19.23147607421875,-23.21805191040039,-4.9609503746032715,25.03095054626465
1742643405365369900,19.247369873046875,-38.80500030517578,-14.785050392150879,12.450000762939453
1742643405381262800,19.263262939453124,-38.80500030517578,-25.470001220703125,-2.1790502071380615
1742643405397158100,19.279158203125,-38.80500030517578,-39.085052490234375,22.483951568603516
1742643405413052000,19.295052001953124,-38.785953521728516,-39.085052490234375,39.5650520324707
1742643405428947000,19.310947021484374,-4.854000091552734,-39.085052490234375,39.5650520324707
1742643405444839700,19.326839599609375,30.03495216369629,-34.87200164794922,39.5650520324707
1742643405460732400,19.342732421875,31.548002243041992,-15.607951164245605,39.5650520324707
1742643405476622800,19.358622802734374,39.610050201416016,-8.27400016784668,39.5650520324707
1742643405500463400,19.38246337890625,39.610050201416016,-5.880000114440918,35.65800094604492
1742643405516356000,19.398356201171875,39.610050201416016,-8.5420503616333,2.3010001182556152
1742643405532249300,19.414249267578125,39.610050201416016,-8.5420503616333,-1.240950107574463
1742643405548147200,19.430147216796875,-9.67905044555664,-3.4680001735687256,-7.675050258636475
1742643405564040700,19.446040771484373,-27.852001190185547,5.071950435638428,1.1710500717163086
1742643405579933400,19.461933349609374,-12.417000770568848,5.455050468444824,4.8670501708984375
1742643405595827000,19.477826904296876,-5.446950435638428,5.551050186157227,4.981950283050537
1742643405611719400,19.493719482421874,-6.40500020980835,7.102050304412842,7.1260504722595215
1742643405627612000,19.50961181640625,-0.3150000274181366,7.675950527191162,8.677050590515137
1742643405643504400,19.52550439453125,3.0730502605438232,7.2360005378723145,7.701000213623047
1742643405659400200,19.541400146484374,1.0630500316619873,6.565950393676758,7.854000568389893
1742643405675294500,19.55729443359375,0.9480000734329224,5.551050186157227,7.969050407409668
1742643405691188700,19.573188720703126,4.203000068664551,4.918950080871582,7.030950546264648
1742643405707083800,19.589083740234376,4.146000385284424,4.957050323486328,6.7819504737854
1742643405722980000,19.60497998046875,-1.1770501136779785,5.589000225067139,7.642950534820557
1742643405738876000,19.6208759765625,-4.546950340270996,6.124950408935547,7.222050189971924
1742643405754771200,19.636771240234374,-2.4409501552581787,5.685000419616699,7.107000350952148
1742643405770666500,19.65266650390625,0.20100000500679016,5.340000152587891,6.724050521850586
1742643405786561000,19.66856103515625,0.8899500370025635,5.206050395965576,7.3750505447387695
1742643405802455000,19.684455078125,0.5460000038146973,5.512050151824951,7.6620001792907715
1742643405818348800,19.700348876953125,0.4120500087738037,5.875950336456299,7.393950462341309
1742643405834244400,19.716244384765623,0.9670500755310059,5.779950141906738,8.467050552368164
1742643405850138600,19.732138671875,2.038950204849243,5.512050151824951,8.601000785827637
1742643405866033700,19.74803369140625,3.8580002784729004,5.320950031280518,8.371050834655762
1742643405881929000,19.763928955078125,4.605000019073486,4.804050445556641,7.087950229644775
1742643405897824800,19.77982470703125,3.4560000896453857,4.497000217437744,6.207000255584717
1742643405913718500,19.795718505859377,1.5220500230789185,4.938000202178955,6.303000450134277
1742643405929611500,19.811611572265626,0.5650500059127808,5.034000396728516,7.1449503898620605
1742643405945506600,19.827506591796876,-0.23895001411437988,5.626950263977051,8.697000503540039
1742643405961398300,19.843398193359373,0.48795002698898315,5.934000492095947,9.136950492858887
1742643405977291800,19.859291748046875,1.981950044631958,5.953050136566162,8.944950103759766
1742643405993186300,19.875186279296877,3.322050094604492,5.971950054168701,9.348000526428223
1742643406009080800,19.891080810546875,4.375050067901611,6.049050331115723,10.420050621032715
1742643406024974000,19.90697412109375,4.299000263214111,6.451050281524658,10.458000183105469
1742643406040868000,19.9228681640625,4.126049995422363,6.834000110626221,10.189950942993164
1742643406056761900,19.938761962890624,3.495000123977661,6.700050354003906,10.554000854492188
1742643406072657000,19.954656982421874,3.3990001678466797,6.412050247192383,10.497000694274902
1742643406088552700,19.970552734375,3.6289501190185547,6.834000110626221,9.711000442504883
1742643406104447000,19.986447021484373,3.724050283432007,6.814950466156006,9.136950492858887
1742643406120340500,20.002340576171875,3.4560000896453857,6.259050369262695,8.96505069732666
1742643406136233500,20.0182333984375,3.0730502605438232,6.067950248718262,8.17905044555664
1742643406152126700,20.034126708984374,2.4220499992370605,6.087000370025635,7.738950252532959
1742643406168020500,20.0500205078125,1.6560001373291016,5.875950336456299,7.432950496673584
1742643406183914200,20.065914306640625,1.2160500288009644,5.953050136566162,7.471050262451172
1742643406199809000,20.08180908203125,0.6799500584602356,5.934000492095947,7.567050457000732
1742643406215704800,20.097704833984373,0.3160500228404999,5.991000175476074,7.758000373840332
1742643406231600000,20.11360009765625,0.2580000162124634,5.953050136566162,8.10300064086914
1742643406247494100,20.129494140625,-0.2770500183105469,5.761050224304199,7.891950607299805
1742643406263386600,20.14538671875,-0.6019500494003296,5.875950336456299,7.681950569152832
1742643406279279000,20.161279052734375,-0.8899500370025635,5.646000385284424,7.950000286102295
1742643406295171600,20.177171630859377,-1.6170001029968262,4.957050323486328,8.275050163269043
1742643406311063300,20.193063232421874,-1.024049997329712,5.244000434875488,7.891950607299805
1742643406326955000,20.208955078125,-0.009000000543892384,5.455050468444824,7.950000286102295
1742643406342847200,20.22484716796875,-0.18105000257492065,5.3020501136779785,8.17905044555664
1742643406358740200,20.240740234375,-0.48795002698898315,5.16795015335083,7.950000286102295
1742643406374632400,20.256632568359375,-0.18105000257492065,5.704050064086914,6.954000473022461
1742643406390523400,20.2725234375,0.6409500241279602,6.355050086975098,5.785950183868408
1742643406406415400,20.288415283203125,1.3120501041412354,6.7950005531311035,5.518050193786621
1742643406422306800,20.304306884765627,1.38795006275177,7.159050464630127,5.938950061798096
1742643406438200000,20.320199951171876,1.158000111579895,7.408050537109375,6.475050449371338
1742643406454094800,20.3360947265625,0.7369500398635864,7.255050182342529,7.1449503898620605
1742643406469988400,20.35198828125,0.5460000038146973,7.4659504890441895,6.916050434112549
1742643406485882600,20.367882568359374,0.6030000448226929,7.581000328063965,6.838950157165527
1742643406501778000,20.38377783203125,0.45000001788139343,7.3120503425598145,6.589950084686279
1742643406517674200,20.39967431640625,0.06705000251531601,6.642000198364258,6.475050449371338
1742643406533569000,20.415569091796876,-0.2959500253200531,7.198050498962402,5.134950160980225
1742643406549463600,20.431463623046874,-0.6019500494003296,7.255050182342529,4.90500020980835
1742643406565357800,20.44735791015625,-0.909000039100647,7.273950576782227,5.479050159454346
1742643406581252400,20.46325244140625,-1.158000111579895,7.293000221252441,5.958000183105469
1742643406597145600,20.4791455078125,-1.158000111579895,6.987000465393066,6.532950401306152
1742643406613040400,20.495040283203124,-0.7170000076293945,6.871950149536133,6.705000400543213
1742643406628934100,20.51093408203125,-0.08505000174045563,6.757050514221191,6.091950416564941
1742643406644829200,20.5268291015625,0.16305001080036163,6.469950199127197,5.862000465393066
